ID,Session0_Pilot1,Configuration,Period,Subject,Group,Profit,TotalProfit,Participate,conf,treat,orden,profit,totalProfit,totalEuros,totalPay,eurosFS,conF1,conF2,conF3,conF4,conF5,ownCon,groupF1,groupF2,groupF3,groupF4,groupF5,FS1G,FS2G,FS3G,FS4G,FS5G,sumFSG,cumSumFS,profF1,profF2,profF3,profF4,profF5,hasDecided,oldGroupF1,oldGroupF2,oldGroupF3,oldGroupF4,oldGroupF5,remainECU,age,gender,studies,level,q1,q2,q3,q4,q5,rand,ranking,screen,TimeAnteriorTutorialOK,TimeContinuarTutorialOK,TimeEmpezarTutorialOK,secsTime,remainTime,show,LeaveStage,TimeCuntoMeQuedaDecOK,TimeAceptarDecOK,maxValue1,minValue1,total,aRandCon[1],aRandCon[2],aRandCon[3],aRandCon[4],aRandCon[5],aRandCon[6],i,itRandCon,con_i,TimeContinuarEndPartOK,TimeEmpezarIniPart2OK,TimeContinuarQuestionsOK,sumaE_FS,TimeOKPaymentOK,timing
1,0,1,1,1,4,0,0,0,1,2,2,108.2775,108.2775,0,0,0,10,20,25,30,15,0,200,116,95,219,175,0,5.8,9.5,32.85,35,83.15,8.315,30,16.53,12.825,27.9225,21,1,0,0,0,0,0,100,26,1,,,-1,-1,-1,-1,-1,0.44408603,32,11,-567,-576,-647,-1,5,0,0,0,3,0,0,0,0,0,0,0,0,0,0,0,0,0,0,0,5.5,0,2
2,0,1,1,2,5,0,0,0,1,1,1,139.485,139.485,0,0,0,90,10,0,0,0,0,479,134,80,120,187,0,6.7,8,18,37.4,70.1,7.01,71.85,19.095,10.8,15.3,22.44,1,0,0,0,0,0,100,21,1,,,-1,-1,-1,-1,-1,0.216592952,47,11,0,-613,-616,-1,30,0,0,0,30,0,0,0,0,0,0,0,0,0,0,0,0,-,-,-,-,-,1
3,0,1,1,3,1,0,0,0,1,1,1,134.0925,134.0925,0,0,0,2,9,0,27,62,0,165,169,239,234,193,0,8.45,23.9,35.1,38.6,106.05,10.605,24.75,24.0825,32.265,29.835,23.16,0,0,0,0,0,0,100,49,1,,,-1,-1,-1,-1,-1,0.894968773,7,11,0,-427,-650,-1,0,0,0,0,0,2,0,5,5,3,2,4,1,0,6,1,2,-,-,-,-,-,0
4,0,1,1,4,2,0,0,0,1,2,2,178.17,178.17,0,0,0,0,0,10,0,0,90,128,160,119,142,100,0,8,11.9,21.3,20,61.2,6.12,19.2,22.8,16.065,18.105,12,1,0,0,0,0,0,100,58,0,,,-1,-1,-1,-1,-1,0.753903971,13,11,0,-375,-379,-1,12,0,0,0,10,0,0,0,0,0,0,0,0,0,0,0,0,-,-,-,-,-,1
5,0,1,1,5,3,0,0,0,1,1,1,134.6925,134.6925,0,0,0,35,25,20,15,5,0,233,147,202,182,236,0,7.35,20.2,27.3,47.2,102.05,10.205,34.95,20.9475,27.27,23.205,28.32,1,0,0,0,0,0,0,18,0,,,-1,-1,-1,-1,-1,0.580842303,22,11,0,-153,-155,-1,36,0,0,39,37,0,0,0,0,0,0,0,0,0,0,0,0,-,-,-,-,-,1
6,0,1,1,6,3,0,0,0,1,1,1,134.6925,134.6925,0,0,0,15,30,35,15,5,0,233,147,202,182,236,0,7.35,20.2,27.3,47.2,102.05,10.205,34.95,20.9475,27.27,23.205,28.32,1,0,0,0,0,0,100,18,1,,,-1,-1,-1,-1,-1,0.49903354,30,11,0,-254,-257,-1,2,0,0,0,0,0,0,0,0,0,0,0,0,0,0,0,0,-,-,-,-,-,2
7,0,1,1,7,6,0,0,0,1,2,2,140.4075,140.4075,0,0,0,42,0,0,0,1,57,203,52,93,79,191,0,2.6,9.3,11.85,38.2,61.95,6.195,30.45,7.41,12.555,10.0725,22.92,1,0,0,0,0,0,100,21,1,,,-1,-1,-1,-1,-1,0.098743431,56,11,0,-181,-183,-1,38,0,0,59,39,0,0,0,0,0,0,0,0,0,0,0,0,-,-,-,-,-,2
8,0,1,1,8,6,0,0,0,1,2,2,168.4075,168.4075,0,0,0,1,2,3,4,5,85,203,52,93,79,191,0,2.6,9.3,11.85,38.2,61.95,6.195,30.45,7.41,12.555,10.0725,22.92,1,0,0,0,0,0,85,23,0,,,-1,-1,-1,-1,-1,0.148584577,51,11,0,-405,-407,-1,32,0,0,36,32,0,0,0,0,0,0,0,0,0,0,0,0,-,-,-,-,-,2
9,0,1,1,9,5,0,0,0,1,1,1,139.485,139.485,0,0,0,50,20,10,10,10,0,479,134,80,120,187,0,6.7,8,18,37.4,70.1,7.01,71.85,19.095,10.8,15.3,22.44,1,0,0,0,0,0,0,24,0,,,-1,-1,-1,-1,-1,0.277740543,41,11,0,-259,-261,-1,25,0,0,26,24,0,0,0,0,0,0,0,0,0,0,0,0,-,-,-,-,-,0
10,0,1,1,10,6,0,0,0,1,2,2,93.4075,93.4075,0,0,0,0,15,15,20,40,10,203,52,93,79,191,0,2.6,9.3,11.85,38.2,61.95,6.195,30.45,7.41,12.555,10.0725,22.92,1,0,0,0,0,0,100,24,1,,,-1,-1,-1,-1,-1,0.11892289,53,11,0,-401,-648,-1,16,0,0,0,14,0,0,0,0,0,0,0,0,0,0,0,0,-,-,-,-,-,2
11,0,1,1,11,4,0,0,0,1,2,2,143.2775,143.2775,0,0,0,0,10,15,30,10,35,200,116,95,219,175,0,5.8,9.5,32.85,35,83.15,8.315,30,16.53,12.825,27.9225,21,1,0,0,0,0,0,35,18,1,,,-1,-1,-1,-1,-1,0.332023182,36,11,0,-206,-208,-1,33,0,0,35,33,0,0,0,0,0,0,0,0,0,0,0,0,-,-,-,-,-,2
12,0,1,1,12,6,0,0,0,1,2,2,103.4075,103.4075,0,0,0,10,10,20,20,20,20,203,52,93,79,191,0,2.6,9.3,11.85,38.2,61.95,6.195,30.45,7.41,12.555,10.0725,22.92,1,0,0,0,0,0,100,39,1,,,-1,-1,-1,-1,-1,0.131890271,52,11,-277,-389,-392,-1,4,0,0,0,2,0,0,0,0,0,0,0,0,0,0,0,0,-,-,-,-,-,2
13,0,1,1,13,4,0,0,0,1,2,2,108.2775,108.2775,0,0,0,70,15,10,5,0,0,200,116,95,219,175,0,5.8,9.5,32.85,35,83.15,8.315,30,16.53,12.825,27.9225,21,1,0,0,0,0,0,0,29,0,,,-1,-1,-1,-1,-1,0.313621675,37,11,0,-345,-348,-1,7,0,0,10,5,0,0,0,0,0,0,0,0,0,0,0,0,-,-,-,-,-,0
14,0,1,1,14,3,0,0,0,1,1,1,134.6925,134.6925,0,0,0,30,20,20,20,10,0,233,147,202,182,236,0,7.35,20.2,27.3,47.2,102.05,10.205,34.95,20.9475,27.27,23.205,28.32,1,0,0,0,0,0,0,46,1,,,-1,-1,-1,-1,-1,0.525412971,26,11,0,-261,-266,-1,12,0,0,15,10,0,0,0,0,0,0,0,0,0,0,0,0,-,-,-,-,-,2
15,0,1,1,15,4,0,0,0,1,2,2,108.2775,108.2775,0,0,0,0,0,0,10,90,0,200,116,95,219,175,0,5.8,9.5,32.85,35,83.15,8.315,30,16.53,12.825,27.9225,21,1,0,0,0,0,0,0,27,1,,,-1,-1,-1,-1,-1,0.411064855,33,11,-213,-292,-294,-1,41,0,0,43,41,0,0,0,0,0,0,0,0,0,0,0,0,-,-,-,-,-,1
16,0,1,1,16,5,0,0,0,1,1,1,139.485,139.485,0,0,0,70,15,5,5,5,0,479,134,80,120,187,0,6.7,8,18,37.4,70.1,7.01,71.85,19.095,10.8,15.3,22.44,1,0,0,0,0,0,0,23,0,,,-1,-1,-1,-1,-1,0.241358633,45,11,0,-342,-344,-1,30,0,0,36,29,0,0,0,0,0,0,0,0,0,0,0,0,-,-,-,-,-,1
17,0,1,1,17,6,0,0,0,1,2,2,83.4075,83.4075,0,0,0,0,0,0,0,100,0,203,52,93,79,191,0,2.6,9.3,11.85,38.2,61.95,6.195,30.45,7.41,12.555,10.0725,22.92,0,0,0,0,0,0,100,18,1,,,-1,-1,-1,-1,-1,0.112023373,54,11,0,-377,-380,-1,0,0,0,0,0,0,0,6,5,3,6,4,2,1,7,3,0,-,-,-,-,-,0
18,0,1,1,18,2,0,0,0,1,2,2,172.17,172.17,0,0,0,5,2,2,3,4,84,128,160,119,142,100,0,8,11.9,21.3,20,61.2,6.12,19.2,22.8,16.065,18.105,12,1,0,0,0,0,0,100,21,1,,,-1,-1,-1,-1,-1,0.683853479,18,11,0,-451,-454,-1,28,0,0,0,28,0,0,0,0,0,0,0,0,0,0,0,0,-,-,-,-,-,0
19,0,1,1,19,3,0,0,0,1,1,1,134.6925,134.6925,0,0,0,3,2,12,2,81,0,233,147,202,182,236,0,7.35,20.2,27.3,47.2,102.05,10.205,34.95,20.9475,27.27,23.205,28.32,0,0,0,0,0,0,69,21,1,,,-1,-1,-1,-1,-1,0.548776244,24,11,0,-386,-389,-1,0,0,0,12,0,2,0,5,5,3,1,4,2,0,6,1,2,-,-,-,-,-,0
20,0,1,1,20,5,0,0,0,1,1,1,139.485,139.485,0,0,0,10,10,10,20,50,0,479,134,80,120,187,0,6.7,8,18,37.4,70.1,7.01,71.85,19.095,10.8,15.3,22.44,1,0,0,0,0,0,0,24,1,,,-1,-1,-1,-1,-1,0.256703223,43,11,0,-221,-232,-1,8,0,0,7,5,0,0,0,0,0,0,0,0,0,0,0,0,-,-,-,-,-,1
21,0,1,1,21,6,0,0,0,1,2,2,148.4075,148.4075,0,0,0,5,5,10,10,5,65,203,52,93,79,191,0,2.6,9.3,11.85,38.2,61.95,6.195,30.45,7.41,12.555,10.0725,22.92,1,0,0,0,0,0,100,22,1,,,-1,-1,-1,-1,-1,0.039488538,58,11,0,-253,-255,-1,26,0,0,0,25,0,0,0,0,0,0,0,0,0,0,0,0,-,-,-,-,-,0
22,0,1,1,22,3,0,0,0,1,1,1,134.6925,134.6925,0,0,0,5,10,40,40,5,0,233,147,202,182,236,0,7.35,20.2,27.3,47.2,102.05,10.205,34.95,20.9475,27.27,23.205,28.32,1,0,0,0,0,0,100,24,1,,,-1,-1,-1,-1,-1,0.509257973,29,11,0,-293,-296,-1,17,0,0,0,15,0,0,0,0,0,0,0,0,0,0,0,0,-,-,-,-,-,0
23,0,1,1,23,2,0,0,0,1,2,2,94.17,94.17,0,0,0,23,0,13,47,11,6,128,160,119,142,100,0,8,11.9,21.3,20,61.2,6.12,19.2,22.8,16.065,18.105,12,1,0,0,0,0,0,17,18,0,,,-1,-1,-1,-1,-1,0.639349751,20,11,0,-259,-263,-1,19,0,0,25,17,0,0,0,0,0,0,0,0,0,0,0,0,-,-,-,-,-,1
24,0,1,1,24,4,0,0,0,1,2,2,108.2775,108.2775,0,0,0,0,11,0,89,0,0,200,116,95,219,175,0,5.8,9.5,32.85,35,83.15,8.315,30,16.53,12.825,27.9225,21,0,0,0,0,0,0,10,19,0,,,-1,-1,-1,-1,-1,0.282334066,40,11,0,-184,-186,-1,0,0,0,16,0,0,0,6,4,2,3,1,6,5,7,5,0,-,-,-,-,-,2
25,0,1,1,25,2,0,0,0,1,2,2,108.17,108.17,0,0,0,0,20,20,20,20,20,128,160,119,142,100,0,8,11.9,21.3,20,61.2,6.12,19.2,22.8,16.065,18.105,12,1,0,0,0,0,0,100,41,1,,,-1,-1,-1,-1,-1,0.67978336,19,11,0,-357,-360,-1,29,0,0,0,28,0,0,0,0,0,0,0,0,0,0,0,0,-,-,-,-,-,1
26,0,1,1,26,6,0,0,0,1,2,2,83.4075,83.4075,0,0,0,80,0,20,0,0,0,203,52,93,79,191,0,2.6,9.3,11.85,38.2,61.95,6.195,30.45,7.41,12.555,10.0725,22.92,1,0,0,0,0,0,100,19,0,,,-1,-1,-1,-1,-1,0.039090085,59,11,0,-371,-386,-1,5,0,0,0,3,0,0,0,0,0,0,0,0,0,0,0,0,-,-,-,-,-,2
27,0,1,1,27,6,0,0,0,1,2,2,133.4075,133.4075,0,0,0,50,0,0,0,0,50,203,52,93,79,191,0,2.6,9.3,11.85,38.2,61.95,6.195,30.45,7.41,12.555,10.0725,22.92,1,0,0,0,0,0,100,19,0,,,-1,-1,-1,-1,-1,0.054154522,57,11,0,-462,-464,-1,29,0,0,0,28,0,0,0,0,0,0,0,0,0,0,0,0,-,-,-,-,-,0
28,0,1,1,28,3,0,0,0,1,1,1,134.6925,134.6925,0,0,0,0,20,20,20,40,0,233,147,202,182,236,0,7.35,20.2,27.3,47.2,102.05,10.205,34.95,20.9475,27.27,23.205,28.32,1,0,0,0,0,0,0,24,1,,,-1,-1,-1,-1,-1,0.536490999,25,11,0,-346,-348,-1,6,0,0,9,4,0,0,0,0,0,0,0,0,0,0,0,0,-,-,-,-,-,0
29,0,1,1,29,1,0,0,0,1,1,1,134.0925,134.0925,0,0,0,2,44,0,54,0,0,165,169,239,234,193,0,8.45,23.9,35.1,38.6,106.05,10.605,24.75,24.0825,32.265,29.835,23.16,0,0,0,0,0,0,100,19,1,,,-1,-1,-1,-1,-1,0.987056268,1,11,0,-277,-290,-1,0,0,0,56,0,0,0,5,4,2,5,1,3,0,6,3,0,-,-,-,-,-,2
30,0,1,1,30,6,0,0,0,1,2,2,158.4075,158.4075,0,0,0,5,5,5,5,5,75,203,52,93,79,191,0,2.6,9.3,11.85,38.2,61.95,6.195,30.45,7.41,12.555,10.0725,22.92,1,0,0,0,0,0,100,19,1,,,-1,-1,-1,-1,-1,0.103166736,55,11,0,-373,-375,-1,28,0,0,0,26,0,0,0,0,0,0,0,0,0,0,0,0,-,-,-,-,-,2
31,0,1,1,31,4,0,0,0,1,2,2,158.2775,158.2775,0,0,0,50,0,0,0,0,50,200,116,95,219,175,0,5.8,9.5,32.85,35,83.15,8.315,30,16.53,12.825,27.9225,21,1,0,0,0,0,0,100,20,0,,,-1,-1,-1,-1,-1,0.38763843,34,11,0,-290,-292,-1,27,0,0,0,25,0,0,0,0,0,0,0,0,0,0,0,0,-,-,-,-,-,1
32,0,1,1,32,3,0,0,0,1,1,1,134.6925,134.6925,0,0,0,20,10,30,10,30,0,233,147,202,182,236,0,7.35,20.2,27.3,47.2,102.05,10.205,34.95,20.9475,27.27,23.205,28.32,1,0,0,0,0,0,100,19,1,,,-1,-1,-1,-1,-1,0.514541467,28,11,0,-294,-304,-1,33,0,0,0,33,0,0,0,0,0,0,0,0,0,0,0,0,-,-,-,-,-,2
33,0,1,1,33,5,0,0,0,1,1,1,139.485,139.485,0,0,0,50,10,10,10,20,0,479,134,80,120,187,0,6.7,8,18,37.4,70.1,7.01,71.85,19.095,10.8,15.3,22.44,1,0,0,0,0,0,0,18,1,,,-1,-1,-1,-1,-1,0.175055902,49,11,0,-231,-245,-1,44,0,0,46,44,0,0,0,0,0,0,0,0,0,0,0,0,-,-,-,-,-,1
34,0,1,1,34,2,0,0,0,1,2,2,138.17,138.17,0,0,0,0,20,10,10,10,50,128,160,119,142,100,0,8,11.9,21.3,20,61.2,6.12,19.2,22.8,16.065,18.105,12,1,0,0,0,0,0,50,18,1,,,-1,-1,-1,-1,-1,0.740170995,14,11,0,-305,-313,-1,27,0,0,27,25,0,0,0,0,0,0,0,0,0,0,0,0,-,-,-,-,-,0
35,0,1,1,35,2,0,0,0,1,2,2,89.17,89.17,0,0,0,10,78,4,7,0,1,128,160,119,142,100,0,8,11.9,21.3,20,61.2,6.12,19.2,22.8,16.065,18.105,12,0,0,0,0,0,0,100,55,1,,,-1,-1,-1,-1,-1,0.776825321,12,11,-640,-650,-681,-1,0,0,0,0,0,0,0,6,2,1,4,6,3,5,7,4,0,-,-,-,-,-,1
36,0,1,1,36,4,0,0,0,1,2,2,158.2775,158.2775,0,0,0,0,5,10,15,20,50,200,116,95,219,175,0,5.8,9.5,32.85,35,83.15,8.315,30,16.53,12.825,27.9225,21,1,0,0,0,0,0,100,25,0,,,-1,-1,-1,-1,-1,0.362049497,35,11,-424,-437,-646,-1,38,0,0,0,37,0,0,0,0,0,0,0,0,0,0,0,0,-,-,-,-,-,2
37,0,1,1,37,1,0,0,0,1,1,1,134.0925,134.0925,0,0,0,100,0,0,0,0,0,165,169,239,234,193,0,8.45,23.9,35.1,38.6,106.05,10.605,24.75,24.0825,32.265,29.835,23.16,1,0,0,0,0,0,100,22,1,,,-1,-1,-1,-1,-1,0.898443023,6,11,0,-288,-290,-1,32,0,0,0,32,0,0,0,0,0,0,0,0,0,0,0,0,-,-,-,-,-,1
38,0,1,1,38,4,0,0,0,1,2,2,123.2775,123.2775,0,0,0,10,20,15,20,20,15,200,116,95,219,175,0,5.8,9.5,32.85,35,83.15,8.315,30,16.53,12.825,27.9225,21,1,0,0,0,0,0,55,22,1,,,-1,-1,-1,-1,-1,0.30495401,38,11,0,-494,-497,-1,19,0,0,25,18,0,0,0,0,0,0,0,0,0,0,0,0,-,-,-,-,-,1
39,0,1,1,39,3,0,0,0,1,1,1,134.6925,134.6925,0,0,0,20,20,10,40,10,0,233,147,202,182,236,0,7.35,20.2,27.3,47.2,102.05,10.205,34.95,20.9475,27.27,23.205,28.32,1,0,0,0,0,0,0,29,1,,,-1,-1,-1,-1,-1,0.525332797,27,11,0,-331,-333,-1,11,0,0,15,9,0,0,0,0,0,0,0,0,0,0,0,0,-,-,-,-,-,1
40,0,1,1,40,2,0,0,0,1,2,2,88.17,88.17,0,0,0,70,10,10,5,5,0,128,160,119,142,100,0,8,11.9,21.3,20,61.2,6.12,19.2,22.8,16.065,18.105,12,1,0,0,0,0,0,100,26,1,,,-1,-1,-1,-1,-1,0.812158899,11,11,0,-429,-432,-1,31,0,0,0,30,0,0,0,0,0,0,0,0,0,0,0,0,-,-,-,-,-,1
41,0,1,1,41,2,0,0,0,1,2,2,158.17,158.17,0,0,0,0,0,0,30,0,70,128,160,119,142,100,0,8,11.9,21.3,20,61.2,6.12,19.2,22.8,16.065,18.105,12,1,0,0,0,0,0,100,21,0,,,-1,-1,-1,-1,-1,0.723654358,16,11,0,-330,-332,-1,26,0,0,0,24,0,0,0,0,0,0,0,0,0,0,0,0,-,-,-,-,-,1
42,0,1,1,42,5,0,0,0,1,1,1,139.485,139.485,0,0,0,20,28,5,39,8,0,479,134,80,120,187,0,6.7,8,18,37.4,70.1,7.01,71.85,19.095,10.8,15.3,22.44,0,0,0,0,0,0,100,24,1,,,-1,-1,-1,-1,-1,0.174181702,50,11,0,-346,-347,-1,0,0,0,0,0,28,0,5,4,3,1,5,2,0,6,4,28,-,-,-,-,-,1
43,0,1,1,43,1,0,0,0,1,1,1,134.0925,134.0925,0,0,0,30,20,20,20,10,0,165,169,239,234,193,0,8.45,23.9,35.1,38.6,106.05,10.605,24.75,24.0825,32.265,29.835,23.16,1,0,0,0,0,0,100,21,0,,,-1,-1,-1,-1,-1,0.954612613,4,11,0,-364,-366,-1,24,0,0,0,22,0,0,0,0,0,0,0,0,0,0,0,0,-,-,-,-,-,0
44,0,1,1,44,5,0,0,0,1,1,1,139.485,139.485,0,0,0,0,20,30,25,25,0,479,134,80,120,187,0,6.7,8,18,37.4,70.1,7.01,71.85,19.095,10.8,15.3,22.44,1,0,0,0,0,0,0,19,1,,,-1,-1,-1,-1,-1,0.264737555,42,11,0,-273,-276,-1,28,0,0,30,26,0,0,0,0,0,0,0,0,0,0,0,0,-,-,-,-,-,1
45,0,1,1,45,4,0,0,0,1,2,2,108.2775,108.2775,0,0,0,50,25,10,10,5,0,200,116,95,219,175,0,5.8,9.5,32.85,35,83.15,8.315,30,16.53,12.825,27.9225,21,1,0,0,0,0,0,0,19,0,,,-1,-1,-1,-1,-1,0.45469472,31,11,0,-367,-368,-1,4,0,0,13,1,0,0,0,0,0,0,0,0,0,0,0,0,-,-,-,-,-,1
46,0,1,1,46,6,0,0,0,1,2,2,103.4075,103.4075,0,0,0,10,15,20,20,15,20,203,52,93,79,191,0,2.6,9.3,11.85,38.2,61.95,6.195,30.45,7.41,12.555,10.0725,22.92,1,0,0,0,0,0,20,34,0,,,-1,-1,-1,-1,-1,0.014828454,60,11,-266,-289,-293,-1,17,0,0,25,15,0,0,0,0,0,0,0,0,0,0,0,0,-,-,-,-,-,0
47,0,1,1,47,5,0,0,0,1,1,1,139.485,139.485,0,0,0,70,0,0,0,30,0,479,134,80,120,187,0,6.7,8,18,37.4,70.1,7.01,71.85,19.095,10.8,15.3,22.44,1,0,0,0,0,0,0,18,0,,,-1,-1,-1,-1,-1,0.241691678,44,11,0,-227,-229,-1,20,0,0,26,18,0,0,0,0,0,0,0,0,0,0,0,0,-,-,-,-,-,1
48,0,1,1,48,1,0,0,0,1,1,1,134.0925,134.0925,0,0,0,20,20,20,20,20,0,165,169,239,234,193,0,8.45,23.9,35.1,38.6,106.05,10.605,24.75,24.0825,32.265,29.835,23.16,1,0,0,0,0,0,100,35,0,,,-1,-1,-1,-1,-1,0.98211386,2,11,0,-360,-363,-1,13,0,0,0,10,0,0,0,0,0,0,0,0,0,0,0,0,-,-,-,-,-,1
49,0,1,1,49,1,0,0,0,1,1,1,134.0925,134.0925,0,0,0,0,0,100,0,0,0,165,169,239,234,193,0,8.45,23.9,35.1,38.6,106.05,10.605,24.75,24.0825,32.265,29.835,23.16,1,0,0,0,0,0,100,24,0,,,-1,-1,-1,-1,-1,0.848546894,10,11,0,-408,-410,-1,38,0,0,0,38,0,0,0,0,0,0,0,0,0,0,0,0,-,-,-,-,-,1
50,0,1,1,50,1,0,0,0,1,1,1,134.0925,134.0925,0,0,0,0,20,30,25,25,0,165,169,239,234,193,0,8.45,23.9,35.1,38.6,106.05,10.605,24.75,24.0825,32.265,29.835,23.16,1,0,0,0,0,0,100,21,1,,,-1,-1,-1,-1,-1,0.864031747,9,11,0,-387,-389,-1,27,0,0,0,26,0,0,0,0,0,0,0,0,0,0,0,0,-,-,-,-,-,1
51,0,1,1,51,3,0,0,0,1,1,1,134.6925,134.6925,0,0,0,5,10,15,20,50,0,233,147,202,182,236,0,7.35,20.2,27.3,47.2,102.05,10.205,34.95,20.9475,27.27,23.205,28.32,1,0,0,0,0,0,0,22,1,,,-1,-1,-1,-1,-1,0.597478454,21,11,0,-292,-294,-1,18,0,0,17,15,0,0,0,0,0,0,0,0,0,0,0,0,-,-,-,-,-,2
52,0,1,1,52,5,0,0,0,1,1,1,139.485,139.485,0,0,0,50,20,10,10,10,0,479,134,80,120,187,0,6.7,8,18,37.4,70.1,7.01,71.85,19.095,10.8,15.3,22.44,1,0,0,0,0,0,10,19,0,,,-1,-1,-1,-1,-1,0.18864158,48,11,-101,-328,-331,-1,31,0,0,34,30,0,0,0,0,0,0,0,0,0,0,0,0,-,-,-,-,-,1
53,0,1,1,53,5,0,0,0,1,1,1,139.485,139.485,0,0,0,69,1,0,1,29,0,479,134,80,120,187,0,6.7,8,18,37.4,70.1,7.01,71.85,19.095,10.8,15.3,22.44,0,0,0,0,0,0,100,37,0,,,-1,-1,-1,-1,-1,0.221830485,46,11,0,-77,-80,-1,0,0,0,0,0,0,0,5,5,1,2,4,3,0,6,1,0,-,-,-,-,-,0
54,0,1,1,54,4,0,0,0,1,2,2,153.2775,153.2775,0,0,0,10,10,10,10,15,45,200,116,95,219,175,0,5.8,9.5,32.85,35,83.15,8.315,30,16.53,12.825,27.9225,21,1,0,0,0,0,0,45,19,1,,,-1,-1,-1,-1,-1,0.298651113,39,11,0,-260,-262,-1,12,0,0,23,9,0,0,0,0,0,0,0,0,0,0,0,0,-,-,-,-,-,1
55,0,1,1,55,1,0,0,0,1,1,1,134.0925,134.0925,0,0,0,0,10,40,40,10,0,165,169,239,234,193,0,8.45,23.9,35.1,38.6,106.05,10.605,24.75,24.0825,32.265,29.835,23.16,1,0,0,0,0,0,100,19,1,,,-1,-1,-1,-1,-1,0.884327149,8,11,0,-210,-215,-1,9,0,0,0,7,0,0,0,0,0,0,0,0,0,0,0,0,-,-,-,-,-,0
56,0,1,1,56,2,0,0,0,1,2,2,88.17,88.17,0,0,0,5,15,35,5,40,0,128,160,119,142,100,0,8,11.9,21.3,20,61.2,6.12,19.2,22.8,16.065,18.105,12,1,0,0,0,0,0,100,20,1,,,-1,-1,-1,-1,-1,0.728796592,15,11,-1,-166,-168,-1,6,0,0,0,3,0,0,0,0,0,0,0,0,0,0,0,0,-,-,-,-,-,1
57,0,1,1,57,3,0,0,0,1,1,1,134.6925,134.6925,0,0,0,100,0,0,0,0,0,233,147,202,182,236,0,7.35,20.2,27.3,47.2,102.05,10.205,34.95,20.9475,27.27,23.205,28.32,1,0,0,0,0,0,0,19,0,,,-1,-1,-1,-1,-1,0.579188953,23,11,-200,-344,-347,-1,37,0,0,40,37,0,0,0,0,0,0,0,0,0,0,0,0,-,-,-,-,-,1
58,0,1,1,58,1,0,0,0,1,1,1,134.0925,134.0925,0,0,0,0,0,10,40,50,0,165,169,239,234,193,0,8.45,23.9,35.1,38.6,106.05,10.605,24.75,24.0825,32.265,29.835,23.16,1,0,0,0,0,0,100,18,1,,,-1,-1,-1,-1,-1,0.965902246,3,11,0,-284,-287,-1,28,0,0,0,26,0,0,0,0,0,0,0,0,0,0,0,0,-,-,-,-,-,2
59,0,1,1,59,2,0,0,0,1,2,2,118.17,118.17,0,0,0,15,15,15,15,10,30,128,160,119,142,100,0,8,11.9,21.3,20,61.2,6.12,19.2,22.8,16.065,18.105,12,1,0,0,0,0,0,30,36,0,,,-1,-1,-1,-1,-1,0.704813341,17,11,0,-284,-287,-1,28,0,0,29,26,0,0,0,0,0,0,0,0,0,0,0,0,-,-,-,-,-,2
60,0,1,1,60,1,0,0,0,1,1,1,134.0925,134.0925,0,0,0,11,46,19,8,16,0,165,169,239,234,193,0,8.45,23.9,35.1,38.6,106.05,10.605,24.75,24.0825,32.265,29.835,23.16,0,0,0,0,0,0,25,20,0,,,-1,-1,-1,-1,-1,0.922148437,5,11,0,-240,-242,-1,0,0,0,18,0,11,0,5,4,3,2,5,1,0,6,4,11,-,-,-,-,-,2
61,0,1,2,1,4,0,0,0,1,2,2,118.1475,226.425,0,0,0,20,30,25,10,15,0,415,105,63,132,130,0,5.25,6.3,19.8,26,57.35,14.05,62.25,14.9625,8.505,16.83,15.6,1,200,116,95,219,175,100,26,1,,,-1,-1,-1,-1,-1,-,-,1,-,-,-,-1,8,1,0,0,6,0,0,0,0,0,0,0,0,0,0,0,0,-,-,-,-,-,2
62,0,1,2,2,5,0,0,0,1,1,1,141.3,280.785,0,0,0,80,0,0,0,20,0,570,100,95,70,165,0,5,9.5,10.5,33,58,12.81,85.5,14.25,12.825,8.925,19.8,1,479,134,80,120,187,100,21,1,,,-1,-1,-1,-1,-1,-,-,1,-,-,-,-1,15,1,0,0,14,0,0,0,0,0,0,0,0,0,0,0,0,-,-,-,-,-,1
63,0,1,2,3,1,0,0,0,1,1,1,132.87,266.9625,0,0,0,20,20,20,20,20,0,80,232,262,176,250,0,11.6,26.2,26.4,50,114.2,22.025,12,33.06,35.37,22.44,30,1,165,169,239,234,193,100,49,1,,,-1,-1,-1,-1,-1,-,-,1,-,-,-,-1,42,1,0,0,43,0,0,0,0,0,0,0,0,0,0,0,0,-,-,-,-,-,0
64,0,1,2,4,2,0,0,0,1,2,2,133.36,311.53,0,0,0,32,2,12,11,3,40,197,112,110,160,105,0,5.6,11,24,21,61.6,12.28,29.55,15.96,14.85,20.4,12.6,0,128,160,119,142,100,100,58,0,,,-1,-1,-1,-1,-1,-,-,1,-,-,-,-1,0,1,0,35,0,3,0,6,1,6,4,3,2,5,7,2,3,-,-,-,-,-,1
65,0,1,2,5,3,0,0,0,1,1,1,138.7575,273.45,0,0,0,25,40,20,10,5,0,430,135,126,124,185,0,6.75,12.6,18.6,37,74.95,17.7,64.5,19.2375,17.01,15.81,22.2,1,233,147,202,182,236,0,18,0,,,-1,-1,-1,-1,-1,-,-,1,-,-,-,-1,16,1,0,18,15,0,0,0,0,0,0,0,0,0,0,0,0,-,-,-,-,-,1
66,0,1,2,6,3,0,0,0,1,1,1,138.7575,273.45,0,0,0,30,0,20,10,40,0,430,135,126,124,185,0,6.75,12.6,18.6,37,74.95,17.7,64.5,19.2375,17.01,15.81,22.2,1,233,147,202,182,236,100,18,1,,,-1,-1,-1,-1,-1,-,-,1,-,-,-,-1,13,1,0,0,12,0,0,0,0,0,0,0,0,0,0,0,0,-,-,-,-,-,2
67,0,1,2,7,6,0,0,0,1,2,2,122.9225,263.33,0,0,0,50,0,0,2,4,44,165,137,68,116,89,0,6.85,6.8,17.4,17.8,48.85,11.08,24.75,19.5225,9.18,14.79,10.68,1,203,52,93,79,191,100,21,1,,,-1,-1,-1,-1,-1,-,-,1,-,-,-,-1,43,1,0,59,44,0,0,0,0,0,0,0,0,0,0,0,0,-,-,-,-,-,2
68,0,1,2,8,6,0,0,0,1,2,2,164.9225,333.33,0,0,0,3,1,3,3,4,86,165,137,68,116,89,0,6.85,6.8,17.4,17.8,48.85,11.08,24.75,19.5225,9.18,14.79,10.68,1,203,52,93,79,191,100,23,0,,,-1,-1,-1,-1,-1,-,-,1,-,-,-,-1,24,1,0,0,24,0,0,0,0,0,0,0,0,0,0,0,0,-,-,-,-,-,2
69,0,1,2,9,5,0,0,0,1,1,1,141.3,280.785,0,0,0,20,10,10,10,50,0,570,100,95,70,165,0,5,9.5,10.5,33,58,12.81,85.5,14.25,12.825,8.925,19.8,1,479,134,80,120,187,0,24,0,,,-1,-1,-1,-1,-1,-,-,1,-,-,-,-1,30,1,0,35,30,0,0,0,0,0,0,0,0,0,0,0,0,-,-,-,-,-,0
70,0,1,2,10,6,0,0,0,1,2,2,113.9225,207.33,0,0,0,4,9,0,51,1,35,165,137,68,116,89,0,6.85,6.8,17.4,17.8,48.85,11.08,24.75,19.5225,9.18,14.79,10.68,0,203,52,93,79,191,100,24,1,,,-1,-1,-1,-1,-1,-,-,1,-,-,-,-1,0,1,0,0,0,9,0,6,5,4,6,3,1,2,7,3,9,-,-,-,-,-,2
71,0,1,2,11,4,0,0,0,1,2,2,173.1475,316.425,0,0,0,20,0,15,10,0,55,415,105,63,132,130,0,5.25,6.3,19.8,26,57.35,14.05,62.25,14.9625,8.505,16.83,15.6,1,200,116,95,219,175,55,18,1,,,-1,-1,-1,-1,-1,-,-,1,-,-,-,-1,37,1,0,40,38,0,0,0,0,0,0,0,0,0,0,0,0,-,-,-,-,-,2
72,0,1,2,12,6,0,0,0,1,2,2,108.9225,212.33,0,0,0,0,10,15,20,25,30,165,137,68,116,89,0,6.85,6.8,17.4,17.8,48.85,11.08,24.75,19.5225,9.18,14.79,10.68,1,203,52,93,79,191,100,39,1,,,-1,-1,-1,-1,-1,-,-,1,-,-,-,-1,30,1,0,55,30,0,0,0,0,0,0,0,0,0,0,0,0,-,-,-,-,-,2
73,0,1,2,13,4,0,0,0,1,2,2,118.1475,226.425,0,0,0,100,0,0,0,0,0,415,105,63,132,130,0,5.25,6.3,19.8,26,57.35,14.05,62.25,14.9625,8.505,16.83,15.6,1,200,116,95,219,175,100,29,0,,,-1,-1,-1,-1,-1,-,-,1,-,-,-,-1,38,1,0,0,39,0,0,0,0,0,0,0,0,0,0,0,0,-,-,-,-,-,0
74,0,1,2,14,3,0,0,0,1,1,1,138.7575,273.45,0,0,0,20,30,20,20,10,0,430,135,126,124,185,0,6.75,12.6,18.6,37,74.95,17.7,64.5,19.2375,17.01,15.81,22.2,1,233,147,202,182,236,100,46,1,,,-1,-1,-1,-1,-1,-,-,1,-,-,-,-1,22,1,0,0,21,0,0,0,0,0,0,0,0,0,0,0,0,-,-,-,-,-,2
75,0,1,2,15,4,0,0,0,1,2,2,128.1475,236.425,0,0,0,0,0,0,10,80,10,415,105,63,132,130,0,5.25,6.3,19.8,26,57.35,14.05,62.25,14.9625,8.505,16.83,15.6,1,200,116,95,219,175,10,27,1,,,-1,-1,-1,-1,-1,-,-,1,-,-,-,-1,37,1,0,41,38,0,0,0,0,0,0,0,0,0,0,0,0,-,-,-,-,-,1
76,0,1,2,16,5,0,0,0,1,1,1,141.3,280.785,0,0,0,85,5,5,5,0,0,570,100,95,70,165,0,5,9.5,10.5,33,58,12.81,85.5,14.25,12.825,8.925,19.8,1,479,134,80,120,187,0,23,0,,,-1,-1,-1,-1,-1,-,-,1,-,-,-,-1,32,1,0,34,32,0,0,0,0,0,0,0,0,0,0,0,0,-,-,-,-,-,1
77,0,1,2,17,6,0,0,0,1,2,2,78.9225,162.33,0,0,0,30,20,25,15,10,0,165,137,68,116,89,0,6.85,6.8,17.4,17.8,48.85,11.08,24.75,19.5225,9.18,14.79,10.68,1,203,52,93,79,191,100,18,1,,,-1,-1,-1,-1,-1,-,-,1,-,-,-,-1,23,1,0,0,22,0,0,0,0,0,0,0,0,0,0,0,0,-,-,-,-,-,0
78,0,1,2,18,2,0,0,0,1,2,2,164.36,336.53,0,0,0,10,9,3,3,4,71,197,112,110,160,105,0,5.6,11,24,21,61.6,12.28,29.55,15.96,14.85,20.4,12.6,1,128,160,119,142,100,100,21,1,,,-1,-1,-1,-1,-1,-,-,1,-,-,-,-1,19,1,0,50,18,0,0,0,0,0,0,0,0,0,0,0,0,-,-,-,-,-,0
79,0,1,2,19,3,0,0,0,1,1,1,138.7575,273.45,0,0,0,60,20,1,9,10,0,430,135,126,124,185,0,6.75,12.6,18.6,37,74.95,17.7,64.5,19.2375,17.01,15.81,22.2,1,233,147,202,182,236,0,21,1,,,-1,-1,-1,-1,-1,-,-,1,-,-,-,-1,26,1,0,31,26,0,0,0,0,0,0,0,0,0,0,0,0,-,-,-,-,-,0
80,0,1,2,20,5,0,0,0,1,1,1,141.3,280.785,0,0,0,50,10,10,10,20,0,570,100,95,70,165,0,5,9.5,10.5,33,58,12.81,85.5,14.25,12.825,8.925,19.8,1,479,134,80,120,187,0,24,1,,,-1,-1,-1,-1,-1,-,-,1,-,-,-,-1,12,1,0,13,11,0,0,0,0,0,0,0,0,0,0,0,0,-,-,-,-,-,1
81,0,1,2,21,6,0,0,0,1,2,2,123.9225,272.33,0,0,0,10,15,5,5,20,45,165,137,68,116,89,0,6.85,6.8,17.4,17.8,48.85,11.08,24.75,19.5225,9.18,14.79,10.68,1,203,52,93,79,191,45,22,1,,,-1,-1,-1,-1,-1,-,-,1,-,-,-,-1,30,1,0,35,30,0,0,0,0,0,0,0,0,0,0,0,0,-,-,-,-,-,0
82,0,1,2,22,3,0,0,0,1,1,1,138.7575,273.45,0,0,0,100,0,0,0,0,0,430,135,126,124,185,0,6.75,12.6,18.6,37,74.95,17.7,64.5,19.2375,17.01,15.81,22.2,0,233,147,202,182,236,100,24,1,,,-1,-1,-1,-1,-1,-,-,1,-,-,-,-1,0,1,0,0,0,0,0,5,1,5,4,3,2,0,6,2,0,-,-,-,-,-,0
83,0,1,2,23,2,0,0,0,1,2,2,93.36,187.53,0,0,0,25,31,20,16,8,0,197,112,110,160,105,0,5.6,11,24,21,61.6,12.28,29.55,15.96,14.85,20.4,12.6,1,128,160,119,142,100,16,18,0,,,-1,-1,-1,-1,-1,-,-,1,-,-,-,-1,10,1,0,13,8,0,0,0,0,0,0,0,0,0,0,0,0,-,-,-,-,-,1
84,0,1,2,24,4,0,0,0,1,2,2,118.1475,226.425,0,0,0,40,20,5,30,5,0,415,105,63,132,130,0,5.25,6.3,19.8,26,57.35,14.05,62.25,14.9625,8.505,16.83,15.6,1,200,116,95,219,175,10,19,0,,,-1,-1,-1,-1,-1,-,-,1,-,-,-,-1,17,1,0,29,16,0,0,0,0,0,0,0,0,0,0,0,0,-,-,-,-,-,2
85,0,1,2,25,2,0,0,0,1,2,2,113.36,221.53,0,0,0,0,10,20,20,30,20,197,112,110,160,105,0,5.6,11,24,21,61.6,12.28,29.55,15.96,14.85,20.4,12.6,1,128,160,119,142,100,100,41,1,,,-1,-1,-1,-1,-1,-,-,1,-,-,-,-1,24,1,0,0,23,0,0,0,0,0,0,0,0,0,0,0,0,-,-,-,-,-,1
86,0,1,2,26,6,0,0,0,1,2,2,78.9225,162.33,0,0,0,43,57,0,0,0,0,165,137,68,116,89,0,6.85,6.8,17.4,17.8,48.85,11.08,24.75,19.5225,9.18,14.79,10.68,1,203,52,93,79,191,100,19,0,,,-1,-1,-1,-1,-1,-,-,1,-,-,-,-1,3,1,0,0,1,0,0,0,0,0,0,0,0,0,0,0,0,-,-,-,-,-,2
87,0,1,2,27,6,0,0,0,1,2,2,178.9225,312.33,0,0,0,0,0,0,0,0,100,165,137,68,116,89,0,6.85,6.8,17.4,17.8,48.85,11.08,24.75,19.5225,9.18,14.79,10.68,1,203,52,93,79,191,100,19,0,,,-1,-1,-1,-1,-1,-,-,1,-,-,-,-1,41,1,0,0,42,0,0,0,0,0,0,0,0,0,0,0,0,-,-,-,-,-,0
88,0,1,2,28,3,0,0,0,1,1,1,138.7575,273.45,0,0,0,10,10,20,30,30,0,430,135,126,124,185,0,6.75,12.6,18.6,37,74.95,17.7,64.5,19.2375,17.01,15.81,22.2,1,233,147,202,182,236,0,24,1,,,-1,-1,-1,-1,-1,-,-,1,-,-,-,-1,27,1,0,30,26,0,0,0,0,0,0,0,0,0,0,0,0,-,-,-,-,-,0
89,0,1,2,29,1,0,0,0,1,1,1,132.87,266.9625,0,0,0,5,20,20,40,15,0,80,232,262,176,250,0,11.6,26.2,26.4,50,114.2,22.025,12,33.06,35.37,22.44,30,1,165,169,239,234,193,100,19,1,,,-1,-1,-1,-1,-1,-,-,1,-,-,-,-1,45,1,0,0,46,0,0,0,0,0,0,0,0,0,0,0,0,-,-,-,-,-,2
90,0,1,2,30,6,0,0,0,1,2,2,143.9225,302.33,0,0,0,10,5,5,5,10,65,165,137,68,116,89,0,6.85,6.8,17.4,17.8,48.85,11.08,24.75,19.5225,9.18,14.79,10.68,1,203,52,93,79,191,100,19,1,,,-1,-1,-1,-1,-1,-,-,1,-,-,-,-1,27,1,0,56,26,0,0,0,0,0,0,0,0,0,0,0,0,-,-,-,-,-,2
91,0,1,2,31,4,0,0,0,1,2,2,118.1475,276.425,0,0,0,100,0,0,0,0,0,415,105,63,132,130,0,5.25,6.3,19.8,26,57.35,14.05,62.25,14.9625,8.505,16.83,15.6,1,200,116,95,219,175,100,20,0,,,-1,-1,-1,-1,-1,-,-,1,-,-,-,-1,35,1,0,0,35,0,0,0,0,0,0,0,0,0,0,0,0,-,-,-,-,-,1
92,0,1,2,32,3,0,0,0,1,1,1,138.7575,273.45,0,0,0,40,5,10,5,40,0,430,135,126,124,185,0,6.75,12.6,18.6,37,74.95,17.7,64.5,19.2375,17.01,15.81,22.2,1,233,147,202,182,236,100,19,1,,,-1,-1,-1,-1,-1,-,-,1,-,-,-,-1,37,1,0,0,37,0,0,0,0,0,0,0,0,0,0,0,0,-,-,-,-,-,2
93,0,1,2,33,5,0,0,0,1,1,1,141.3,280.785,0,0,0,40,10,15,15,20,0,570,100,95,70,165,0,5,9.5,10.5,33,58,12.81,85.5,14.25,12.825,8.925,19.8,1,479,134,80,120,187,10,18,1,,,-1,-1,-1,-1,-1,-,-,1,-,-,-,-1,17,1,0,30,15,0,0,0,0,0,0,0,0,0,0,0,0,-,-,-,-,-,1
94,0,1,2,34,2,0,0,0,1,2,2,93.36,231.53,0,0,0,35,25,20,10,10,0,197,112,110,160,105,0,5.6,11,24,21,61.6,12.28,29.55,15.96,14.85,20.4,12.6,1,128,160,119,142,100,5,18,1,,,-1,-1,-1,-1,-1,-,-,1,-,-,-,-1,12,1,0,16,11,0,0,0,0,0,0,0,0,0,0,0,0,-,-,-,-,-,0
95,0,1,2,35,2,0,0,0,1,2,2,173.36,262.53,0,0,0,0,0,0,0,20,80,197,112,110,160,105,0,5.6,11,24,21,61.6,12.28,29.55,15.96,14.85,20.4,12.6,1,128,160,119,142,100,30,55,1,,,-1,-1,-1,-1,-1,-,-,1,-,-,-,-1,10,1,0,30,8,0,0,0,0,0,0,0,0,0,0,0,0,-,-,-,-,-,1
96,0,1,2,36,4,0,0,0,1,2,2,168.1475,326.425,0,0,0,20,15,10,5,0,50,415,105,63,132,130,0,5.25,6.3,19.8,26,57.35,14.05,62.25,14.9625,8.505,16.83,15.6,1,200,116,95,219,175,100,25,0,,,-1,-1,-1,-1,-1,-,-,1,-,-,-,-1,30,1,0,52,29,0,0,0,0,0,0,0,0,0,0,0,0,-,-,-,-,-,2
97,0,1,2,37,1,0,0,0,1,1,1,132.87,266.9625,0,0,0,0,100,0,0,0,0,80,232,262,176,250,0,11.6,26.2,26.4,50,114.2,22.025,12,33.06,35.37,22.44,30,1,165,169,239,234,193,100,22,1,,,-1,-1,-1,-1,-1,-,-,1,-,-,-,-1,44,1,0,0,44,0,0,0,0,0,0,0,0,0,0,0,0,-,-,-,-,-,1
98,0,1,2,38,4,0,0,0,1,2,2,118.1475,241.425,0,0,0,20,25,5,30,20,0,415,105,63,132,130,0,5.25,6.3,19.8,26,57.35,14.05,62.25,14.9625,8.505,16.83,15.6,1,200,116,95,219,175,25,22,1,,,-1,-1,-1,-1,-1,-,-,1,-,-,-,-1,32,1,0,37,32,0,0,0,0,0,0,0,0,0,0,0,0,-,-,-,-,-,1
99,0,1,2,39,3,0,0,0,1,1,1,138.7575,273.45,0,0,0,40,20,20,10,10,0,430,135,126,124,185,0,6.75,12.6,18.6,37,74.95,17.7,64.5,19.2375,17.01,15.81,22.2,1,233,147,202,182,236,10,29,1,,,-1,-1,-1,-1,-1,-,-,1,-,-,-,-1,8,1,0,21,6,0,0,0,0,0,0,0,0,0,0,0,0,-,-,-,-,-,1
100,0,1,2,40,2,0,0,0,1,2,2,103.36,191.53,0,0,0,60,10,10,5,5,10,197,112,110,160,105,0,5.6,11,24,21,61.6,12.28,29.55,15.96,14.85,20.4,12.6,1,128,160,119,142,100,100,26,1,,,-1,-1,-1,-1,-1,-,-,1,-,-,-,-1,38,1,0,0,37,0,0,0,0,0,0,0,0,0,0,0,0,-,-,-,-,-,1
101,0,1,2,41,2,0,0,0,1,2,2,153.36,311.53,0,0,0,0,0,0,40,0,60,197,112,110,160,105,0,5.6,11,24,21,61.6,12.28,29.55,15.96,14.85,20.4,12.6,1,128,160,119,142,100,100,21,0,,,-1,-1,-1,-1,-1,-,-,1,-,-,-,-1,31,1,0,0,30,0,0,0,0,0,0,0,0,0,0,0,0,-,-,-,-,-,1
102,0,1,2,42,5,0,0,0,1,1,1,141.3,280.785,0,0,0,50,15,15,10,10,0,570,100,95,70,165,0,5,9.5,10.5,33,58,12.81,85.5,14.25,12.825,8.925,19.8,1,479,134,80,120,187,100,24,1,,,-1,-1,-1,-1,-1,-,-,1,-,-,-,-1,22,1,0,0,21,0,0,0,0,0,0,0,0,0,0,0,0,-,-,-,-,-,1
103,0,1,2,43,1,0,0,0,1,1,1,132.87,266.9625,0,0,0,30,20,20,20,10,0,80,232,262,176,250,0,11.6,26.2,26.4,50,114.2,22.025,12,33.06,35.37,22.44,30,1,165,169,239,234,193,0,21,0,,,-1,-1,-1,-1,-1,-,-,1,-,-,-,-1,24,1,0,40,23,0,0,0,0,0,0,0,0,0,0,0,0,-,-,-,-,-,0
104,0,1,2,44,5,0,0,0,1,1,1,141.3,280.785,0,0,0,20,20,40,10,10,0,570,100,95,70,165,0,5,9.5,10.5,33,58,12.81,85.5,14.25,12.825,8.925,19.8,1,479,134,80,120,187,0,19,1,,,-1,-1,-1,-1,-1,-,-,1,-,-,-,-1,20,1,0,20,18,0,0,0,0,0,0,0,0,0,0,0,0,-,-,-,-,-,1
105,0,1,2,45,4,0,0,0,1,2,2,118.1475,226.425,0,0,0,75,10,0,15,0,0,415,105,63,132,130,0,5.25,6.3,19.8,26,57.35,14.05,62.25,14.9625,8.505,16.83,15.6,1,200,116,95,219,175,0,19,0,,,-1,-1,-1,-1,-1,-,-,1,-,-,-,-1,12,1,0,16,10,0,0,0,0,0,0,0,0,0,0,0,0,-,-,-,-,-,1
106,0,1,2,46,6,0,0,0,1,2,2,98.9225,202.33,0,0,0,15,20,15,15,15,20,165,137,68,116,89,0,6.85,6.8,17.4,17.8,48.85,11.08,24.75,19.5225,9.18,14.79,10.68,1,203,52,93,79,191,20,34,0,,,-1,-1,-1,-1,-1,-,-,1,-,-,-,-1,28,1,0,32,27,0,0,0,0,0,0,0,0,0,0,0,0,-,-,-,-,-,0
107,0,1,2,47,5,0,0,0,1,1,1,141.3,280.785,0,0,0,75,5,0,10,10,0,570,100,95,70,165,0,5,9.5,10.5,33,58,12.81,85.5,14.25,12.825,8.925,19.8,1,479,134,80,120,187,100,18,0,,,-1,-1,-1,-1,-1,-,-,1,-,-,-,-1,20,1,0,0,19,0,0,0,0,0,0,0,0,0,0,0,0,-,-,-,-,-,1
108,0,1,2,48,1,0,0,0,1,1,1,132.87,266.9625,0,0,0,0,5,15,20,60,0,80,232,262,176,250,0,11.6,26.2,26.4,50,114.2,22.025,12,33.06,35.37,22.44,30,1,165,169,239,234,193,100,35,0,,,-1,-1,-1,-1,-1,-,-,1,-,-,-,-1,31,1,0,0,30,0,0,0,0,0,0,0,0,0,0,0,0,-,-,-,-,-,1
109,0,1,2,49,1,0,0,0,1,1,1,132.87,266.9625,0,0,0,0,0,100,0,0,0,80,232,262,176,250,0,11.6,26.2,26.4,50,114.2,22.025,12,33.06,35.37,22.44,30,1,165,169,239,234,193,100,24,0,,,-1,-1,-1,-1,-1,-,-,1,-,-,-,-1,25,1,0,0,24,0,0,0,0,0,0,0,0,0,0,0,0,-,-,-,-,-,1
110,0,1,2,50,1,0,0,0,1,1,1,132.87,266.9625,0,0,0,10,20,40,20,10,0,80,232,262,176,250,0,11.6,26.2,26.4,50,114.2,22.025,12,33.06,35.37,22.44,30,1,165,169,239,234,193,100,21,1,,,-1,-1,-1,-1,-1,-,-,1,-,-,-,-1,7,1,0,51,5,0,0,0,0,0,0,0,0,0,0,0,0,-,-,-,-,-,1
111,0,1,2,51,3,0,0,0,1,1,1,138.7575,273.45,0,0,0,5,10,15,30,40,0,430,135,126,124,185,0,6.75,12.6,18.6,37,74.95,17.7,64.5,19.2375,17.01,15.81,22.2,1,233,147,202,182,236,0,22,1,,,-1,-1,-1,-1,-1,-,-,1,-,-,-,-1,9,1,0,17,7,0,0,0,0,0,0,0,0,0,0,0,0,-,-,-,-,-,2
112,0,1,2,52,5,0,0,0,1,1,1,141.3,280.785,0,0,0,100,0,0,0,0,0,570,100,95,70,165,0,5,9.5,10.5,33,58,12.81,85.5,14.25,12.825,8.925,19.8,1,479,134,80,120,187,100,19,0,,,-1,-1,-1,-1,-1,-,-,1,-,-,-,-1,43,1,0,0,43,0,0,0,0,0,0,0,0,0,0,0,0,-,-,-,-,-,1
113,0,1,2,53,5,0,0,0,1,1,1,141.3,280.785,0,0,0,50,25,0,0,25,0,570,100,95,70,165,0,5,9.5,10.5,33,58,12.81,85.5,14.25,12.825,8.925,19.8,1,479,134,80,120,187,100,37,0,,,-1,-1,-1,-1,-1,-,-,1,-,-,-,-1,34,1,0,0,33,0,0,0,0,0,0,0,0,0,0,0,0,-,-,-,-,-,0
114,0,1,2,54,4,0,0,0,1,2,2,158.1475,311.425,0,0,0,20,5,3,22,10,40,415,105,63,132,130,0,5.25,6.3,19.8,26,57.35,14.05,62.25,14.9625,8.505,16.83,15.6,1,200,116,95,219,175,45,19,1,,,-1,-1,-1,-1,-1,-,-,1,-,-,-,-1,5,1,0,15,3,0,0,0,0,0,0,0,0,0,0,0,0,-,-,-,-,-,1
115,0,1,2,55,1,0,0,0,1,1,1,132.87,266.9625,0,0,0,5,25,20,15,35,0,80,232,262,176,250,0,11.6,26.2,26.4,50,114.2,22.025,12,33.06,35.37,22.44,30,1,165,169,239,234,193,100,19,1,,,-1,-1,-1,-1,-1,-,-,1,-,-,-,-1,8,1,0,0,6,0,0,0,0,0,0,0,0,0,0,0,0,-,-,-,-,-,0
116,0,1,2,56,2,0,0,0,1,2,2,103.36,191.53,0,0,0,20,10,10,40,10,10,197,112,110,160,105,0,5.6,11,24,21,61.6,12.28,29.55,15.96,14.85,20.4,12.6,1,128,160,119,142,100,100,20,1,,,-1,-1,-1,-1,-1,-,-,1,-,-,-,-1,29,1,0,0,28,0,0,0,0,0,0,0,0,0,0,0,0,-,-,-,-,-,1
117,0,1,2,57,3,0,0,0,1,1,1,138.7575,273.45,0,0,0,100,0,0,0,0,0,430,135,126,124,185,0,6.75,12.6,18.6,37,74.95,17.7,64.5,19.2375,17.01,15.81,22.2,1,233,147,202,182,236,100,19,0,,,-1,-1,-1,-1,-1,-,-,1,-,-,-,-1,42,1,0,0,42,0,0,0,0,0,0,0,0,0,0,0,0,-,-,-,-,-,1
118,0,1,2,58,1,0,0,0,1,1,1,132.87,266.9625,0,0,0,0,0,0,20,80,0,80,232,262,176,250,0,11.6,26.2,26.4,50,114.2,22.025,12,33.06,35.37,22.44,30,1,165,169,239,234,193,100,18,1,,,-1,-1,-1,-1,-1,-,-,1,-,-,-,-1,32,1,0,0,32,0,0,0,0,0,0,0,0,0,0,0,0,-,-,-,-,-,2
119,0,1,2,59,2,0,0,0,1,2,2,118.36,236.53,0,0,0,15,15,15,15,15,25,197,112,110,160,105,0,5.6,11,24,21,61.6,12.28,29.55,15.96,14.85,20.4,12.6,1,128,160,119,142,100,25,36,0,,,-1,-1,-1,-1,-1,-,-,1,-,-,-,-1,40,1,0,42,39,0,0,0,0,0,0,0,0,0,0,0,0,-,-,-,-,-,2
120,0,1,2,60,1,0,0,0,1,1,1,132.87,266.9625,0,0,0,10,22,27,21,20,0,80,232,262,176,250,0,11.6,26.2,26.4,50,114.2,22.025,12,33.06,35.37,22.44,30,1,165,169,239,234,193,0,20,0,,,-1,-1,-1,-1,-1,-,-,1,-,-,-,-1,17,1,0,17,15,0,0,0,0,0,0,0,0,0,0,0,0,-,-,-,-,-,2
121,0,1,3,1,4,0,0,0,1,2,2,118.8,345.225,0,0,0,30,20,20,15,15,0,465,120,50,80,125,0,6,5,12,25,48,18.85,69.75,17.1,6.75,10.2,15,1,415,105,63,132,130,30,26,1,,,-1,-1,-1,-1,-1,-,-,1,-,-,-,-1,24,1,0,33,23,0,0,0,0,0,0,0,0,0,0,0,0,-,-,-,-,-,2
122,0,1,3,2,5,0,0,0,1,1,1,138.8325,419.6175,0,0,0,80,10,0,0,10,0,440,135,107,132,186,0,6.75,10.7,19.8,37.2,74.45,20.255,66,19.2375,14.445,16.83,22.32,1,570,100,95,70,165,100,21,1,,,-1,-1,-1,-1,-1,-,-,1,-,-,-,-1,27,1,0,0,27,0,0,0,0,0,0,0,0,0,0,0,0,-,-,-,-,-,1
123,0,1,3,3,1,0,0,0,1,1,1,135.615,402.5775,0,0,0,68,0,0,14,18,0,272,169,153,181,225,0,8.45,15.3,27.15,45,95.9,31.615,40.8,24.0825,20.655,23.0775,27,0,80,232,262,176,250,100,49,1,,,-1,-1,-1,-1,-1,-,-,1,-,-,-,-1,0,1,0,0,0,0,0,5,4,1,5,2,3,0,6,3,0,-,-,-,-,-,0
124,0,1,3,4,2,0,0,0,1,2,2,159.8525,471.3825,0,0,0,20,0,0,0,0,80,186,105,89,98,104,0,5.25,8.9,14.7,20.8,49.65,17.245,27.9,14.9625,12.015,12.495,12.48,1,197,112,110,160,105,100,58,0,,,-1,-1,-1,-1,-1,-,-,1,-,-,-,-1,26,1,0,60,25,0,0,0,0,0,0,0,0,0,0,0,0,-,-,-,-,-,1
125,0,1,3,5,3,0,0,0,1,1,1,137.445,410.895,0,0,0,45,15,15,15,10,0,351,135,190,137,187,0,6.75,19,20.55,37.4,83.7,26.07,52.65,19.2375,25.65,17.4675,22.44,1,430,135,126,124,185,0,18,0,,,-1,-1,-1,-1,-1,-,-,1,-,-,-,-1,7,1,0,20,6,0,0,0,0,0,0,0,0,0,0,0,0,-,-,-,-,-,1
126,0,1,3,6,3,0,0,0,1,1,1,137.445,410.895,0,0,0,35,25,5,20,15,0,351,135,190,137,187,0,6.75,19,20.55,37.4,83.7,26.07,52.65,19.2375,25.65,17.4675,22.44,1,430,135,126,124,185,100,18,1,,,-1,-1,-1,-1,-1,-,-,1,-,-,-,-1,11,1,0,0,10,0,0,0,0,0,0,0,0,0,0,0,0,-,-,-,-,-,2
127,0,1,3,7,6,0,0,0,1,2,2,99.505,362.835,0,0,0,90,1,1,1,0,7,273,115,103,99,72,0,5.75,10.3,14.85,14.4,45.3,15.61,40.95,16.3875,13.905,12.6225,8.64,1,165,137,68,116,89,100,21,1,,,-1,-1,-1,-1,-1,-,-,1,-,-,-,-1,47,1,0,0,49,0,0,0,0,0,0,0,0,0,0,0,0,-,-,-,-,-,2
128,0,1,3,8,6,0,0,0,1,2,2,183.505,516.835,0,0,0,1,2,3,2,1,91,273,115,103,99,72,0,5.75,10.3,14.85,14.4,45.3,15.61,40.95,16.3875,13.905,12.6225,8.64,1,165,137,68,116,89,91,23,0,,,-1,-1,-1,-1,-1,-,-,1,-,-,-,-1,37,1,0,39,38,0,0,0,0,0,0,0,0,0,0,0,0,-,-,-,-,-,2
129,0,1,3,9,5,0,0,0,1,1,1,138.8325,419.6175,0,0,0,20,20,20,30,10,0,440,135,107,132,186,0,6.75,10.7,19.8,37.2,74.45,20.255,66,19.2375,14.445,16.83,22.32,1,570,100,95,70,165,0,24,0,,,-1,-1,-1,-1,-1,-,-,1,-,-,-,-1,28,1,0,30,27,0,0,0,0,0,0,0,0,0,0,0,0,-,-,-,-,-,0
130,0,1,3,10,6,0,0,0,1,2,2,92.505,299.835,0,0,0,45,12,1,41,1,0,273,115,103,99,72,0,5.75,10.3,14.85,14.4,45.3,15.61,40.95,16.3875,13.905,12.6225,8.64,0,165,137,68,116,89,100,24,1,,,-1,-1,-1,-1,-1,-,-,1,-,-,-,-1,0,1,0,0,0,1,0,6,1,4,2,6,3,5,7,4,1,-,-,-,-,-,2
131,0,1,3,11,4,0,0,0,1,2,2,158.8,475.225,0,0,0,30,5,5,5,15,40,465,120,50,80,125,0,6,5,12,25,48,18.85,69.75,17.1,6.75,10.2,15,1,415,105,63,132,130,40,18,1,,,-1,-1,-1,-1,-1,-,-,1,-,-,-,-1,47,1,0,49,48,0,0,0,0,0,0,0,0,0,0,0,0,-,-,-,-,-,2
132,0,1,3,12,6,0,0,0,1,2,2,142.505,354.835,0,0,0,10,10,10,10,10,50,273,115,103,99,72,0,5.75,10.3,14.85,14.4,45.3,15.61,40.95,16.3875,13.905,12.6225,8.64,1,165,137,68,116,89,100,39,1,,,-1,-1,-1,-1,-1,-,-,1,-,-,-,-1,40,1,0,0,41,0,0,0,0,0,0,0,0,0,0,0,0,-,-,-,-,-,2
133,0,1,3,13,4,0,0,0,1,2,2,118.8,345.225,0,0,0,80,15,5,0,0,0,465,120,50,80,125,0,6,5,12,25,48,18.85,69.75,17.1,6.75,10.2,15,1,415,105,63,132,130,0,29,0,,,-1,-1,-1,-1,-1,-,-,1,-,-,-,-1,19,1,0,40,18,0,0,0,0,0,0,0,0,0,0,0,0,-,-,-,-,-,0
134,0,1,3,14,3,0,0,0,1,1,1,137.445,410.895,0,0,0,10,20,20,20,30,0,351,135,190,137,187,0,6.75,19,20.55,37.4,83.7,26.07,52.65,19.2375,25.65,17.4675,22.44,1,430,135,126,124,185,0,46,1,,,-1,-1,-1,-1,-1,-,-,1,-,-,-,-1,0,1,0,1,-1,0,0,0,0,0,0,0,0,0,0,0,0,-,-,-,-,-,2
135,0,1,3,15,4,0,0,0,1,2,2,118.8,355.225,0,0,0,40,0,0,10,50,0,465,120,50,80,125,0,6,5,12,25,48,18.85,69.75,17.1,6.75,10.2,15,1,415,105,63,132,130,100,27,1,,,-1,-1,-1,-1,-1,-,-,1,-,-,-,-1,22,1,0,0,21,0,0,0,0,0,0,0,0,0,0,0,0,-,-,-,-,-,1
136,0,1,3,16,5,0,0,0,1,1,1,138.8325,419.6175,0,0,0,85,10,2,2,1,0,440,135,107,132,186,0,6.75,10.7,19.8,37.2,74.45,20.255,66,19.2375,14.445,16.83,22.32,1,570,100,95,70,165,0,23,0,,,-1,-1,-1,-1,-1,-,-,1,-,-,-,-1,30,1,0,33,30,0,0,0,0,0,0,0,0,0,0,0,0,-,-,-,-,-,1
137,0,1,3,17,6,0,0,0,1,2,2,92.505,254.835,0,0,0,20,20,20,20,20,0,273,115,103,99,72,0,5.75,10.3,14.85,14.4,45.3,15.61,40.95,16.3875,13.905,12.6225,8.64,1,165,137,68,116,89,100,18,1,,,-1,-1,-1,-1,-1,-,-,1,-,-,-,-1,28,1,0,59,27,0,0,0,0,0,0,0,0,0,0,0,0,-,-,-,-,-,0
138,0,1,3,18,2,0,0,0,1,2,2,159.8525,496.3825,0,0,0,6,5,4,3,2,80,186,105,89,98,104,0,5.25,8.9,14.7,20.8,49.65,17.245,27.9,14.9625,12.015,12.495,12.48,1,197,112,110,160,105,100,21,1,,,-1,-1,-1,-1,-1,-,-,1,-,-,-,-1,38,1,0,0,38,0,0,0,0,0,0,0,0,0,0,0,0,-,-,-,-,-,0
139,0,1,3,19,3,0,0,0,1,1,1,137.445,410.895,0,0,0,1,5,80,2,12,0,351,135,190,137,187,0,6.75,19,20.55,37.4,83.7,26.07,52.65,19.2375,25.65,17.4675,22.44,1,430,135,126,124,185,12,21,1,,,-1,-1,-1,-1,-1,-,-,1,-,-,-,-1,21,1,0,37,20,0,0,0,0,0,0,0,0,0,0,0,0,-,-,-,-,-,0
140,0,1,3,20,5,0,0,0,1,1,1,138.8325,419.6175,0,0,0,0,10,15,25,50,0,440,135,107,132,186,0,6.75,10.7,19.8,37.2,74.45,20.255,66,19.2375,14.445,16.83,22.32,1,570,100,95,70,165,5,24,1,,,-1,-1,-1,-1,-1,-,-,1,-,-,-,-1,2,1,0,5,0,0,0,0,0,0,0,0,0,0,0,0,0,-,-,-,-,-,1
141,0,1,3,21,6,0,0,0,1,2,2,127.505,399.835,0,0,0,10,20,20,5,10,35,273,115,103,99,72,0,5.75,10.3,14.85,14.4,45.3,15.61,40.95,16.3875,13.905,12.6225,8.64,1,165,137,68,116,89,35,22,1,,,-1,-1,-1,-1,-1,-,-,1,-,-,-,-1,34,1,0,37,34,0,0,0,0,0,0,0,0,0,0,0,0,-,-,-,-,-,0
142,0,1,3,22,3,0,0,0,1,1,1,137.445,410.895,0,0,0,50,0,0,0,50,0,351,135,190,137,187,0,6.75,19,20.55,37.4,83.7,26.07,52.65,19.2375,25.65,17.4675,22.44,1,430,135,126,124,185,100,24,1,,,-1,-1,-1,-1,-1,-,-,1,-,-,-,-1,30,1,0,0,30,0,0,0,0,0,0,0,0,0,0,0,0,-,-,-,-,-,0
143,0,1,3,23,2,0,0,0,1,2,2,94.8525,282.3825,0,0,0,20,20,20,15,10,15,186,105,89,98,104,0,5.25,8.9,14.7,20.8,49.65,17.245,27.9,14.9625,12.015,12.495,12.48,1,197,112,110,160,105,15,18,0,,,-1,-1,-1,-1,-1,-,-,1,-,-,-,-1,11,1,0,28,10,0,0,0,0,0,0,0,0,0,0,0,0,-,-,-,-,-,1
144,0,1,3,24,4,0,0,0,1,2,2,118.8,345.225,0,0,0,65,20,0,10,5,0,465,120,50,80,125,0,6,5,12,25,48,18.85,69.75,17.1,6.75,10.2,15,1,415,105,63,132,130,5,19,0,,,-1,-1,-1,-1,-1,-,-,1,-,-,-,-1,14,1,0,26,13,0,0,0,0,0,0,0,0,0,0,0,0,-,-,-,-,-,2
145,0,1,3,25,2,0,0,0,1,2,2,109.8525,331.3825,0,0,0,0,20,20,20,10,30,186,105,89,98,104,0,5.25,8.9,14.7,20.8,49.65,17.245,27.9,14.9625,12.015,12.495,12.48,1,197,112,110,160,105,100,41,1,,,-1,-1,-1,-1,-1,-,-,1,-,-,-,-1,33,1,0,0,33,0,0,0,0,0,0,0,0,0,0,0,0,-,-,-,-,-,1
146,0,1,3,26,6,0,0,0,1,2,2,92.505,254.835,0,0,0,42,30,28,0,0,0,273,115,103,99,72,0,5.75,10.3,14.85,14.4,45.3,15.61,40.95,16.3875,13.905,12.6225,8.64,1,165,137,68,116,89,100,19,0,,,-1,-1,-1,-1,-1,-,-,1,-,-,-,-1,6,1,0,0,5,0,0,0,0,0,0,0,0,0,0,0,0,-,-,-,-,-,2
147,0,1,3,27,6,0,0,0,1,2,2,172.505,484.835,0,0,0,20,0,0,0,0,80,273,115,103,99,72,0,5.75,10.3,14.85,14.4,45.3,15.61,40.95,16.3875,13.905,12.6225,8.64,1,165,137,68,116,89,100,19,0,,,-1,-1,-1,-1,-1,-,-,1,-,-,-,-1,38,1,0,0,38,0,0,0,0,0,0,0,0,0,0,0,0,-,-,-,-,-,0
148,0,1,3,28,3,0,0,0,1,1,1,137.445,410.895,0,0,0,20,10,20,20,30,0,351,135,190,137,187,0,6.75,19,20.55,37.4,83.7,26.07,52.65,19.2375,25.65,17.4675,22.44,1,430,135,126,124,185,0,24,1,,,-1,-1,-1,-1,-1,-,-,1,-,-,-,-1,31,1,0,33,31,0,0,0,0,0,0,0,0,0,0,0,0,-,-,-,-,-,0
149,0,1,3,29,1,0,0,0,1,1,1,135.615,402.5775,0,0,0,10,20,25,35,10,0,272,169,153,181,225,0,8.45,15.3,27.15,45,95.9,31.615,40.8,24.0825,20.655,23.0775,27,1,80,232,262,176,250,100,19,1,,,-1,-1,-1,-1,-1,-,-,1,-,-,-,-1,10,1,0,0,9,0,0,0,0,0,0,0,0,0,0,0,0,-,-,-,-,-,2
150,0,1,3,30,6,0,0,0,1,2,2,152.505,454.835,0,0,0,10,10,5,10,5,60,273,115,103,99,72,0,5.75,10.3,14.85,14.4,45.3,15.61,40.95,16.3875,13.905,12.6225,8.64,1,165,137,68,116,89,100,19,1,,,-1,-1,-1,-1,-1,-,-,1,-,-,-,-1,24,1,0,0,23,0,0,0,0,0,0,0,0,0,0,0,0,-,-,-,-,-,2
151,0,1,3,31,4,0,0,0,1,2,2,118.8,395.225,0,0,0,100,0,0,0,0,0,465,120,50,80,125,0,6,5,12,25,48,18.85,69.75,17.1,6.75,10.2,15,1,415,105,63,132,130,100,20,0,,,-1,-1,-1,-1,-1,-,-,1,-,-,-,-1,45,1,0,0,46,0,0,0,0,0,0,0,0,0,0,0,0,-,-,-,-,-,1
152,0,1,3,32,3,0,0,0,1,1,1,137.445,410.895,0,0,0,50,10,10,10,20,0,351,135,190,137,187,0,6.75,19,20.55,37.4,83.7,26.07,52.65,19.2375,25.65,17.4675,22.44,1,430,135,126,124,185,0,19,1,,,-1,-1,-1,-1,-1,-,-,1,-,-,-,-1,32,1,0,34,32,0,0,0,0,0,0,0,0,0,0,0,0,-,-,-,-,-,2
153,0,1,3,33,5,0,0,0,1,1,1,138.8325,419.6175,0,0,0,20,20,20,20,20,0,440,135,107,132,186,0,6.75,10.7,19.8,37.2,74.45,20.255,66,19.2375,14.445,16.83,22.32,1,570,100,95,70,165,100,18,1,,,-1,-1,-1,-1,-1,-,-,1,-,-,-,-1,40,1,0,0,40,0,0,0,0,0,0,0,0,0,0,0,0,-,-,-,-,-,1
154,0,1,3,34,2,0,0,0,1,2,2,89.8525,321.3825,0,0,0,25,25,10,15,15,10,186,105,89,98,104,0,5.25,8.9,14.7,20.8,49.65,17.245,27.9,14.9625,12.015,12.495,12.48,1,197,112,110,160,105,10,18,1,,,-1,-1,-1,-1,-1,-,-,1,-,-,-,-1,30,1,0,30,29,0,0,0,0,0,0,0,0,0,0,0,0,-,-,-,-,-,0
155,0,1,3,35,2,0,0,0,1,2,2,159.8525,422.3825,0,0,0,0,0,0,20,0,80,186,105,89,98,104,0,5.25,8.9,14.7,20.8,49.65,17.245,27.9,14.9625,12.015,12.495,12.48,1,197,112,110,160,105,80,55,1,,,-1,-1,-1,-1,-1,-,-,1,-,-,-,-1,5,1,0,12,3,0,0,0,0,0,0,0,0,0,0,0,0,-,-,-,-,-,1
156,0,1,3,36,4,0,0,0,1,2,2,168.8,495.225,0,0,0,15,20,0,5,10,50,465,120,50,80,125,0,6,5,12,25,48,18.85,69.75,17.1,6.75,10.2,15,1,415,105,63,132,130,100,25,0,,,-1,-1,-1,-1,-1,-,-,1,-,-,-,-1,34,1,0,0,34,0,0,0,0,0,0,0,0,0,0,0,0,-,-,-,-,-,2
157,0,1,3,37,1,0,0,0,1,1,1,135.615,402.5775,0,0,0,100,0,0,0,0,0,272,169,153,181,225,0,8.45,15.3,27.15,45,95.9,31.615,40.8,24.0825,20.655,23.0775,27,1,80,232,262,176,250,100,22,1,,,-1,-1,-1,-1,-1,-,-,1,-,-,-,-1,40,1,0,0,40,0,0,0,0,0,0,0,0,0,0,0,0,-,-,-,-,-,1
158,0,1,3,38,4,0,0,0,1,2,2,138.8,380.225,0,0,0,0,20,20,20,20,20,465,120,50,80,125,0,6,5,12,25,48,18.85,69.75,17.1,6.75,10.2,15,1,415,105,63,132,130,100,22,1,,,-1,-1,-1,-1,-1,-,-,1,-,-,-,-1,35,1,0,0,34,0,0,0,0,0,0,0,0,0,0,0,0,-,-,-,-,-,1
159,0,1,3,39,3,0,0,0,1,1,1,137.445,410.895,0,0,0,30,20,20,20,10,0,351,135,190,137,187,0,6.75,19,20.55,37.4,83.7,26.07,52.65,19.2375,25.65,17.4675,22.44,1,430,135,126,124,185,0,29,1,,,-1,-1,-1,-1,-1,-,-,1,-,-,-,-1,3,1,0,18,1,0,0,0,0,0,0,0,0,0,0,0,0,-,-,-,-,-,1
160,0,1,3,40,2,0,0,0,1,2,2,79.8525,271.3825,0,0,0,70,10,10,5,5,0,186,105,89,98,104,0,5.25,8.9,14.7,20.8,49.65,17.245,27.9,14.9625,12.015,12.495,12.48,1,197,112,110,160,105,100,26,1,,,-1,-1,-1,-1,-1,-,-,1,-,-,-,-1,36,1,0,0,36,0,0,0,0,0,0,0,0,0,0,0,0,-,-,-,-,-,1
161,0,1,3,41,2,0,0,0,1,2,2,149.8525,461.3825,0,0,0,0,0,0,0,30,70,186,105,89,98,104,0,5.25,8.9,14.7,20.8,49.65,17.245,27.9,14.9625,12.015,12.495,12.48,1,197,112,110,160,105,100,21,0,,,-1,-1,-1,-1,-1,-,-,1,-,-,-,-1,40,1,0,0,40,0,0,0,0,0,0,0,0,0,0,0,0,-,-,-,-,-,1
162,0,1,3,42,5,0,0,0,1,1,1,138.8325,419.6175,0,0,0,50,20,20,0,10,0,440,135,107,132,186,0,6.75,10.7,19.8,37.2,74.45,20.255,66,19.2375,14.445,16.83,22.32,1,570,100,95,70,165,100,24,1,,,-1,-1,-1,-1,-1,-,-,1,-,-,-,-1,27,1,0,0,26,0,0,0,0,0,0,0,0,0,0,0,0,-,-,-,-,-,1
163,0,1,3,43,1,0,0,0,1,1,1,135.615,402.5775,0,0,0,50,20,20,5,5,0,272,169,153,181,225,0,8.45,15.3,27.15,45,95.9,31.615,40.8,24.0825,20.655,23.0775,27,1,80,232,262,176,250,0,21,0,,,-1,-1,-1,-1,-1,-,-,1,-,-,-,-1,25,1,0,33,24,0,0,0,0,0,0,0,0,0,0,0,0,-,-,-,-,-,0
164,0,1,3,44,5,0,0,0,1,1,1,138.8325,419.6175,0,0,0,15,20,5,30,30,0,440,135,107,132,186,0,6.75,10.7,19.8,37.2,74.45,20.255,66,19.2375,14.445,16.83,22.32,1,570,100,95,70,165,100,19,1,,,-1,-1,-1,-1,-1,-,-,1,-,-,-,-1,16,1,0,0,14,0,0,0,0,0,0,0,0,0,0,0,0,-,-,-,-,-,1
165,0,1,3,45,4,0,0,0,1,2,2,118.8,345.225,0,0,0,75,10,0,10,5,0,465,120,50,80,125,0,6,5,12,25,48,18.85,69.75,17.1,6.75,10.2,15,1,415,105,63,132,130,0,19,0,,,-1,-1,-1,-1,-1,-,-,1,-,-,-,-1,10,1,0,12,8,0,0,0,0,0,0,0,0,0,0,0,0,-,-,-,-,-,1
166,0,1,3,46,6,0,0,0,1,2,2,107.505,309.835,0,0,0,25,10,15,10,25,15,273,115,103,99,72,0,5.75,10.3,14.85,14.4,45.3,15.61,40.95,16.3875,13.905,12.6225,8.64,1,165,137,68,116,89,30,34,0,,,-1,-1,-1,-1,-1,-,-,1,-,-,-,-1,38,1,0,46,38,0,0,0,0,0,0,0,0,0,0,0,0,-,-,-,-,-,0
167,0,1,3,47,5,0,0,0,1,1,1,138.8325,419.6175,0,0,0,75,0,0,0,25,0,440,135,107,132,186,0,6.75,10.7,19.8,37.2,74.45,20.255,66,19.2375,14.445,16.83,22.32,1,570,100,95,70,165,100,18,0,,,-1,-1,-1,-1,-1,-,-,1,-,-,-,-1,28,1,0,0,27,0,0,0,0,0,0,0,0,0,0,0,0,-,-,-,-,-,1
168,0,1,3,48,1,0,0,0,1,1,1,135.615,402.5775,0,0,0,0,5,5,20,70,0,272,169,153,181,225,0,8.45,15.3,27.15,45,95.9,31.615,40.8,24.0825,20.655,23.0775,27,1,80,232,262,176,250,100,35,0,,,-1,-1,-1,-1,-1,-,-,1,-,-,-,-1,31,1,0,0,30,0,0,0,0,0,0,0,0,0,0,0,0,-,-,-,-,-,1
169,0,1,3,49,1,0,0,0,1,1,1,135.615,402.5775,0,0,0,0,30,50,20,0,0,272,169,153,181,225,0,8.45,15.3,27.15,45,95.9,31.615,40.8,24.0825,20.655,23.0775,27,1,80,232,262,176,250,100,24,0,,,-1,-1,-1,-1,-1,-,-,1,-,-,-,-1,37,1,0,0,36,0,0,0,0,0,0,0,0,0,0,0,0,-,-,-,-,-,1
170,0,1,3,50,1,0,0,0,1,1,1,135.615,402.5775,0,0,0,10,20,20,30,20,0,272,169,153,181,225,0,8.45,15.3,27.15,45,95.9,31.615,40.8,24.0825,20.655,23.0775,27,1,80,232,262,176,250,100,21,1,,,-1,-1,-1,-1,-1,-,-,1,-,-,-,-1,33,1,0,0,32,0,0,0,0,0,0,0,0,0,0,0,0,-,-,-,-,-,1
171,0,1,3,51,3,0,0,0,1,1,1,137.445,410.895,0,0,0,10,30,20,30,10,0,351,135,190,137,187,0,6.75,19,20.55,37.4,83.7,26.07,52.65,19.2375,25.65,17.4675,22.44,1,430,135,126,124,185,0,22,1,,,-1,-1,-1,-1,-1,-,-,1,-,-,-,-1,25,1,0,25,24,0,0,0,0,0,0,0,0,0,0,0,0,-,-,-,-,-,2
172,0,1,3,52,5,0,0,0,1,1,1,138.8325,419.6175,0,0,0,70,10,10,5,5,0,440,135,107,132,186,0,6.75,10.7,19.8,37.2,74.45,20.255,66,19.2375,14.445,16.83,22.32,1,570,100,95,70,165,15,19,0,,,-1,-1,-1,-1,-1,-,-,1,-,-,-,-1,10,1,0,24,8,0,0,0,0,0,0,0,0,0,0,0,0,-,-,-,-,-,1
173,0,1,3,53,5,0,0,0,1,1,1,138.8325,419.6175,0,0,0,25,15,15,20,25,0,440,135,107,132,186,0,6.75,10.7,19.8,37.2,74.45,20.255,66,19.2375,14.445,16.83,22.32,1,570,100,95,70,165,100,37,0,,,-1,-1,-1,-1,-1,-,-,1,-,-,-,-1,30,1,0,0,29,0,0,0,0,0,0,0,0,0,0,0,0,-,-,-,-,-,0
174,0,1,3,54,4,0,0,0,1,2,2,168.8,480.225,0,0,0,30,10,0,5,5,50,465,120,50,80,125,0,6,5,12,25,48,18.85,69.75,17.1,6.75,10.2,15,1,415,105,63,132,130,100,19,1,,,-1,-1,-1,-1,-1,-,-,1,-,-,-,-1,28,1,0,0,27,0,0,0,0,0,0,0,0,0,0,0,0,-,-,-,-,-,1
175,0,1,3,55,1,0,0,0,1,1,1,135.615,402.5775,0,0,0,12,38,8,30,12,0,272,169,153,181,225,0,8.45,15.3,27.15,45,95.9,31.615,40.8,24.0825,20.655,23.0775,27,1,80,232,262,176,250,0,19,1,,,-1,-1,-1,-1,-1,-,-,1,-,-,-,-1,9,1,0,16,7,0,0,0,0,0,0,0,0,0,0,0,0,-,-,-,-,-,0
176,0,1,3,56,2,0,0,0,1,2,2,107.8525,299.3825,0,0,0,30,10,10,5,17,28,186,105,89,98,104,0,5.25,8.9,14.7,20.8,49.65,17.245,27.9,14.9625,12.015,12.495,12.48,1,197,112,110,160,105,100,20,1,,,-1,-1,-1,-1,-1,-,-,1,-,-,-,-1,38,1,0,0,38,0,0,0,0,0,0,0,0,0,0,0,0,-,-,-,-,-,1
177,0,1,3,57,3,0,0,0,1,1,1,137.445,410.895,0,0,0,100,0,0,0,0,0,351,135,190,137,187,0,6.75,19,20.55,37.4,83.7,26.07,52.65,19.2375,25.65,17.4675,22.44,1,430,135,126,124,185,0,19,0,,,-1,-1,-1,-1,-1,-,-,1,-,-,-,-1,51,1,0,54,52,0,0,0,0,0,0,0,0,0,0,0,0,-,-,-,-,-,1
178,0,1,3,58,1,0,0,0,1,1,1,135.615,402.5775,0,0,0,12,6,0,12,70,0,272,169,153,181,225,0,8.45,15.3,27.15,45,95.9,31.615,40.8,24.0825,20.655,23.0775,27,1,80,232,262,176,250,0,18,1,,,-1,-1,-1,-1,-1,-,-,1,-,-,-,-1,35,1,0,36,34,0,0,0,0,0,0,0,0,0,0,0,0,-,-,-,-,-,2
179,0,1,3,59,2,0,0,0,1,2,2,104.8525,341.3825,0,0,0,15,15,15,15,15,25,186,105,89,98,104,0,5.25,8.9,14.7,20.8,49.65,17.245,27.9,14.9625,12.015,12.495,12.48,1,197,112,110,160,105,100,36,0,,,-1,-1,-1,-1,-1,-,-,1,-,-,-,-1,44,1,0,0,44,0,0,0,0,0,0,0,0,0,0,0,0,-,-,-,-,-,2
180,0,1,3,60,1,0,0,0,1,1,1,135.615,402.5775,0,0,0,10,30,25,15,20,0,272,169,153,181,225,0,8.45,15.3,27.15,45,95.9,31.615,40.8,24.0825,20.655,23.0775,27,1,80,232,262,176,250,0,20,0,,,-1,-1,-1,-1,-1,-,-,1,-,-,-,-1,11,1,0,10,9,0,0,0,0,0,0,0,0,0,0,0,0,-,-,-,-,-,2
181,0,1,4,1,4,0,0,0,1,2,2,116.55,461.775,0,0,0,30,0,30,20,20,0,441,71,71,61,191,0,3.55,7.1,9.15,38.2,58,24.65,66.15,10.1175,9.585,7.7775,22.92,1,465,120,50,80,125,0,26,1,,,-1,-1,-1,-1,-1,-,-,1,-,-,-,-1,12,1,0,12,10,0,0,0,0,0,0,0,0,0,0,0,0,-,-,-,-,-,2
182,0,1,4,2,5,0,0,0,1,1,1,141.9375,561.555,0,0,0,70,10,0,10,10,0,574,129,86,70,141,0,6.45,8.6,10.5,28.2,53.75,25.63,86.1,18.3825,11.61,8.925,16.92,1,440,135,107,132,186,100,21,1,,,-1,-1,-1,-1,-1,-,-,1,-,-,-,-1,28,1,0,0,28,0,0,0,0,0,0,0,0,0,0,0,0,-,-,-,-,-,1
183,0,1,4,3,1,0,0,0,1,1,1,133.4025,535.98,0,0,0,20,20,20,20,20,0,208,89,250,188,265,0,4.45,25,28.2,53,110.65,42.68,31.2,12.6825,33.75,23.97,31.8,1,272,169,153,181,225,100,49,1,,,-1,-1,-1,-1,-1,-,-,1,-,-,-,-1,43,1,0,0,44,0,0,0,0,0,0,0,0,0,0,0,0,-,-,-,-,-,0
184,0,1,4,4,2,0,0,0,1,2,2,105.7325,577.115,0,0,0,18,52,4,8,4,14,195,161,69,94,152,0,8.05,6.9,14.1,30.4,59.45,23.19,29.25,22.9425,9.315,11.985,18.24,0,186,105,89,98,104,100,58,0,,,-1,-1,-1,-1,-1,-,-,1,-,-,-,-1,0,1,0,37,0,8,0,6,6,2,3,1,5,4,7,1,8,-,-,-,-,-,1
185,0,1,4,5,3,0,0,0,1,1,1,137.73,548.625,0,0,0,35,20,15,20,10,0,400,126,130,126,218,0,6.3,13,18.9,43.6,81.8,34.25,60,17.955,17.55,16.065,26.16,1,351,135,190,137,187,0,18,0,,,-1,-1,-1,-1,-1,-,-,1,-,-,-,-1,2,1,0,17,0,0,0,0,0,0,0,0,0,0,0,0,0,-,-,-,-,-,1
186,0,1,4,6,3,0,0,0,1,1,1,137.73,548.625,0,0,0,40,10,15,10,25,0,400,126,130,126,218,0,6.3,13,18.9,43.6,81.8,34.25,60,17.955,17.55,16.065,26.16,1,351,135,190,137,187,100,18,1,,,-1,-1,-1,-1,-1,-,-,1,-,-,-,-1,24,1,0,0,23,0,0,0,0,0,0,0,0,0,0,0,0,-,-,-,-,-,2
187,0,1,4,7,6,0,0,0,1,2,2,133.375,496.21,0,0,0,50,1,2,3,4,40,215,121,117,113,114,0,6.05,11.7,16.95,22.8,57.5,21.36,32.25,17.2425,15.795,14.4075,13.68,1,273,115,103,99,72,100,21,1,,,-1,-1,-1,-1,-1,-,-,1,-,-,-,-1,44,1,0,0,45,0,0,0,0,0,0,0,0,0,0,0,0,-,-,-,-,-,2
188,0,1,4,8,6,0,0,0,1,2,2,183.375,700.21,0,0,0,0,0,0,0,10,90,215,121,117,113,114,0,6.05,11.7,16.95,22.8,57.5,21.36,32.25,17.2425,15.795,14.4075,13.68,1,273,115,103,99,72,100,23,0,,,-1,-1,-1,-1,-1,-,-,1,-,-,-,-1,50,1,0,0,51,0,0,0,0,0,0,0,0,0,0,0,0,-,-,-,-,-,2
189,0,1,4,9,5,0,0,0,1,1,1,141.9375,561.555,0,0,0,60,10,15,10,5,0,574,129,86,70,141,0,6.45,8.6,10.5,28.2,53.75,25.63,86.1,18.3825,11.61,8.925,16.92,1,440,135,107,132,186,0,24,0,,,-1,-1,-1,-1,-1,-,-,1,-,-,-,-1,26,1,0,27,25,0,0,0,0,0,0,0,0,0,0,0,0,-,-,-,-,-,0
190,0,1,4,10,6,0,0,0,1,2,2,93.375,393.21,0,0,0,20,20,20,20,20,0,215,121,117,113,114,0,6.05,11.7,16.95,22.8,57.5,21.36,32.25,17.2425,15.795,14.4075,13.68,1,273,115,103,99,72,100,24,1,,,-1,-1,-1,-1,-1,-,-,1,-,-,-,-1,22,1,0,0,21,0,0,0,0,0,0,0,0,0,0,0,0,-,-,-,-,-,2
191,0,1,4,11,4,0,0,0,1,2,2,116.55,591.775,0,0,0,20,20,20,20,20,0,441,71,71,61,191,0,3.55,7.1,9.15,38.2,58,24.65,66.15,10.1175,9.585,7.7775,22.92,1,465,120,50,80,125,0,18,1,,,-1,-1,-1,-1,-1,-,-,1,-,-,-,-1,45,1,0,48,45,0,0,0,0,0,0,0,0,0,0,0,0,-,-,-,-,-,2
192,0,1,4,12,6,0,0,0,1,2,2,148.375,503.21,0,0,0,0,0,10,15,20,55,215,121,117,113,114,0,6.05,11.7,16.95,22.8,57.5,21.36,32.25,17.2425,15.795,14.4075,13.68,1,273,115,103,99,72,100,39,1,,,-1,-1,-1,-1,-1,-,-,1,-,-,-,-1,41,1,0,0,42,0,0,0,0,0,0,0,0,0,0,0,0,-,-,-,-,-,2
193,0,1,4,13,4,0,0,0,1,2,2,116.55,461.775,0,0,0,60,10,10,10,10,0,441,71,71,61,191,0,3.55,7.1,9.15,38.2,58,24.65,66.15,10.1175,9.585,7.7775,22.92,1,465,120,50,80,125,0,29,0,,,-1,-1,-1,-1,-1,-,-,1,-,-,-,-1,19,1,0,44,18,0,0,0,0,0,0,0,0,0,0,0,0,-,-,-,-,-,0
194,0,1,4,14,3,0,0,0,1,1,1,137.73,548.625,0,0,0,10,25,20,25,20,0,400,126,130,126,218,0,6.3,13,18.9,43.6,81.8,34.25,60,17.955,17.55,16.065,26.16,1,351,135,190,137,187,0,46,1,,,-1,-1,-1,-1,-1,-,-,1,-,-,-,-1,20,1,0,22,19,0,0,0,0,0,0,0,0,0,0,0,0,-,-,-,-,-,2
195,0,1,4,15,4,0,0,0,1,2,2,116.55,471.775,0,0,0,0,0,0,0,100,0,441,71,71,61,191,0,3.55,7.1,9.15,38.2,58,24.65,66.15,10.1175,9.585,7.7775,22.92,1,465,120,50,80,125,100,27,1,,,-1,-1,-1,-1,-1,-,-,1,-,-,-,-1,40,1,0,0,40,0,0,0,0,0,0,0,0,0,0,0,0,-,-,-,-,-,1
196,0,1,4,16,5,0,0,0,1,1,1,141.9375,561.555,0,0,0,90,3,3,3,1,0,574,129,86,70,141,0,6.45,8.6,10.5,28.2,53.75,25.63,86.1,18.3825,11.61,8.925,16.92,1,440,135,107,132,186,0,23,0,,,-1,-1,-1,-1,-1,-,-,1,-,-,-,-1,42,1,0,49,42,0,0,0,0,0,0,0,0,0,0,0,0,-,-,-,-,-,1
197,0,1,4,17,6,0,0,0,1,2,2,93.375,348.21,0,0,0,50,20,10,10,10,0,215,121,117,113,114,0,6.05,11.7,16.95,22.8,57.5,21.36,32.25,17.2425,15.795,14.4075,13.68,1,273,115,103,99,72,100,18,1,,,-1,-1,-1,-1,-1,-,-,1,-,-,-,-1,35,1,0,0,35,0,0,0,0,0,0,0,0,0,0,0,0,-,-,-,-,-,0
198,0,1,4,18,2,0,0,0,1,2,2,165.7325,662.115,0,0,0,10,5,3,3,5,74,195,161,69,94,152,0,8.05,6.9,14.1,30.4,59.45,23.19,29.25,22.9425,9.315,11.985,18.24,1,186,105,89,98,104,100,21,1,,,-1,-1,-1,-1,-1,-,-,1,-,-,-,-1,21,1,0,0,20,0,0,0,0,0,0,0,0,0,0,0,0,-,-,-,-,-,0
199,0,1,4,19,3,0,0,0,1,1,1,137.73,548.625,0,0,0,90,1,5,1,3,0,400,126,130,126,218,0,6.3,13,18.9,43.6,81.8,34.25,60,17.955,17.55,16.065,26.16,1,351,135,190,137,187,2,21,1,,,-1,-1,-1,-1,-1,-,-,1,-,-,-,-1,27,1,0,34,26,0,0,0,0,0,0,0,0,0,0,0,0,-,-,-,-,-,0
200,0,1,4,20,5,0,0,0,1,1,1,141.9375,561.555,0,0,0,4,36,38,12,10,0,574,129,86,70,141,0,6.45,8.6,10.5,28.2,53.75,25.63,86.1,18.3825,11.61,8.925,16.92,0,440,135,107,132,186,5,24,1,,,-1,-1,-1,-1,-1,-,-,1,-,-,-,-1,0,1,0,19,0,10,0,5,3,4,2,1,5,0,6,5,10,-,-,-,-,-,1
201,0,1,4,21,6,0,0,0,1,2,2,103.375,503.21,0,0,0,15,15,20,20,20,10,215,121,117,113,114,0,6.05,11.7,16.95,22.8,57.5,21.36,32.25,17.2425,15.795,14.4075,13.68,1,273,115,103,99,72,30,22,1,,,-1,-1,-1,-1,-1,-,-,1,-,-,-,-1,41,1,0,47,42,0,0,0,0,0,0,0,0,0,0,0,0,-,-,-,-,-,0
202,0,1,4,22,3,0,0,0,1,1,1,137.73,548.625,0,0,0,40,0,5,5,50,0,400,126,130,126,218,0,6.3,13,18.9,43.6,81.8,34.25,60,17.955,17.55,16.065,26.16,1,351,135,190,137,187,100,24,1,,,-1,-1,-1,-1,-1,-,-,1,-,-,-,-1,19,1,0,0,17,0,0,0,0,0,0,0,0,0,0,0,0,-,-,-,-,-,0
203,0,1,4,23,2,0,0,0,1,2,2,92.7325,375.115,0,0,0,17,29,12,23,18,1,195,161,69,94,152,0,8.05,6.9,14.1,30.4,59.45,23.19,29.25,22.9425,9.315,11.985,18.24,1,186,105,89,98,104,1,18,0,,,-1,-1,-1,-1,-1,-,-,1,-,-,-,-1,12,1,0,14,10,0,0,0,0,0,0,0,0,0,0,0,0,-,-,-,-,-,1
204,0,1,4,24,4,0,0,0,1,2,2,116.55,461.775,0,0,0,80,20,0,0,0,0,441,71,71,61,191,0,3.55,7.1,9.15,38.2,58,24.65,66.15,10.1175,9.585,7.7775,22.92,1,465,120,50,80,125,100,19,0,,,-1,-1,-1,-1,-1,-,-,1,-,-,-,-1,25,1,0,0,24,0,0,0,0,0,0,0,0,0,0,0,0,-,-,-,-,-,2
205,0,1,4,25,2,0,0,0,1,2,2,111.7325,443.115,0,0,0,0,30,20,20,10,20,195,161,69,94,152,0,8.05,6.9,14.1,30.4,59.45,23.19,29.25,22.9425,9.315,11.985,18.24,1,186,105,89,98,104,100,41,1,,,-1,-1,-1,-1,-1,-,-,1,-,-,-,-1,26,1,0,0,25,0,0,0,0,0,0,0,0,0,0,0,0,-,-,-,-,-,1
206,0,1,4,26,6,0,0,0,1,2,2,93.375,348.21,0,0,0,0,40,30,25,5,0,215,121,117,113,114,0,6.05,11.7,16.95,22.8,57.5,21.36,32.25,17.2425,15.795,14.4075,13.68,1,273,115,103,99,72,40,19,0,,,-1,-1,-1,-1,-1,-,-,1,-,-,-,-1,12,1,0,13,10,0,0,0,0,0,0,0,0,0,0,0,0,-,-,-,-,-,2
207,0,1,4,27,6,0,0,0,1,2,2,153.375,638.21,0,0,0,40,0,0,0,0,60,215,121,117,113,114,0,6.05,11.7,16.95,22.8,57.5,21.36,32.25,17.2425,15.795,14.4075,13.68,1,273,115,103,99,72,100,19,0,,,-1,-1,-1,-1,-1,-,-,1,-,-,-,-1,42,1,0,0,42,0,0,0,0,0,0,0,0,0,0,0,0,-,-,-,-,-,0
208,0,1,4,28,3,0,0,0,1,1,1,137.73,548.625,0,0,0,20,20,20,20,20,0,400,126,130,126,218,0,6.3,13,18.9,43.6,81.8,34.25,60,17.955,17.55,16.065,26.16,1,351,135,190,137,187,0,24,1,,,-1,-1,-1,-1,-1,-,-,1,-,-,-,-1,8,1,0,9,7,0,0,0,0,0,0,0,0,0,0,0,0,-,-,-,-,-,0
209,0,1,4,29,1,0,0,0,1,1,1,133.4025,535.98,0,0,0,30,5,20,20,25,0,208,89,250,188,265,0,4.45,25,28.2,53,110.65,42.68,31.2,12.6825,33.75,23.97,31.8,1,272,169,153,181,225,100,19,1,,,-1,-1,-1,-1,-1,-,-,1,-,-,-,-1,21,1,0,0,20,0,0,0,0,0,0,0,0,0,0,0,0,-,-,-,-,-,2
210,0,1,4,30,6,0,0,0,1,2,2,143.375,598.21,0,0,0,20,10,10,5,5,50,215,121,117,113,114,0,6.05,11.7,16.95,22.8,57.5,21.36,32.25,17.2425,15.795,14.4075,13.68,1,273,115,103,99,72,100,19,1,,,-1,-1,-1,-1,-1,-,-,1,-,-,-,-1,39,1,0,0,39,0,0,0,0,0,0,0,0,0,0,0,0,-,-,-,-,-,2
211,0,1,4,31,4,0,0,0,1,2,2,126.55,521.775,0,0,0,85,0,0,0,5,10,441,71,71,61,191,0,3.55,7.1,9.15,38.2,58,24.65,66.15,10.1175,9.585,7.7775,22.92,1,465,120,50,80,125,100,20,0,,,-1,-1,-1,-1,-1,-,-,1,-,-,-,-1,42,1,0,0,42,0,0,0,0,0,0,0,0,0,0,0,0,-,-,-,-,-,1
212,0,1,4,32,3,0,0,0,1,1,1,137.73,548.625,0,0,0,40,10,15,5,30,0,400,126,130,126,218,0,6.3,13,18.9,43.6,81.8,34.25,60,17.955,17.55,16.065,26.16,1,351,135,190,137,187,0,19,1,,,-1,-1,-1,-1,-1,-,-,1,-,-,-,-1,23,1,0,26,22,0,0,0,0,0,0,0,0,0,0,0,0,-,-,-,-,-,2
213,0,1,4,33,5,0,0,0,1,1,1,141.9375,561.555,0,0,0,55,5,5,5,30,0,574,129,86,70,141,0,6.45,8.6,10.5,28.2,53.75,25.63,86.1,18.3825,11.61,8.925,16.92,1,440,135,107,132,186,30,18,1,,,-1,-1,-1,-1,-1,-,-,1,-,-,-,-1,44,1,0,49,45,0,0,0,0,0,0,0,0,0,0,0,0,-,-,-,-,-,1
214,0,1,4,34,2,0,0,0,1,2,2,126.7325,448.115,0,0,0,30,10,5,10,10,35,195,161,69,94,152,0,8.05,6.9,14.1,30.4,59.45,23.19,29.25,22.9425,9.315,11.985,18.24,1,186,105,89,98,104,35,18,1,,,-1,-1,-1,-1,-1,-,-,1,-,-,-,-1,31,1,0,32,30,0,0,0,0,0,0,0,0,0,0,0,0,-,-,-,-,-,0
215,0,1,4,35,2,0,0,0,1,2,2,161.7325,584.115,0,0,0,0,0,0,10,20,70,195,161,69,94,152,0,8.05,6.9,14.1,30.4,59.45,23.19,29.25,22.9425,9.315,11.985,18.24,1,186,105,89,98,104,70,55,1,,,-1,-1,-1,-1,-1,-,-,1,-,-,-,-1,5,1,0,22,4,0,0,0,0,0,0,0,0,0,0,0,0,-,-,-,-,-,1
216,0,1,4,36,4,0,0,0,1,2,2,161.55,656.775,0,0,0,30,5,0,0,20,45,441,71,71,61,191,0,3.55,7.1,9.15,38.2,58,24.65,66.15,10.1175,9.585,7.7775,22.92,1,465,120,50,80,125,100,25,0,,,-1,-1,-1,-1,-1,-,-,1,-,-,-,-1,14,1,0,54,12,0,0,0,0,0,0,0,0,0,0,0,0,-,-,-,-,-,2
217,0,1,4,37,1,0,0,0,1,1,1,133.4025,535.98,0,0,0,100,0,0,0,0,0,208,89,250,188,265,0,4.45,25,28.2,53,110.65,42.68,31.2,12.6825,33.75,23.97,31.8,1,272,169,153,181,225,100,22,1,,,-1,-1,-1,-1,-1,-,-,1,-,-,-,-1,43,1,0,0,43,0,0,0,0,0,0,0,0,0,0,0,0,-,-,-,-,-,1
218,0,1,4,38,4,0,0,0,1,2,2,176.55,556.775,0,0,0,0,10,10,10,10,60,441,71,71,61,191,0,3.55,7.1,9.15,38.2,58,24.65,66.15,10.1175,9.585,7.7775,22.92,1,465,120,50,80,125,100,22,1,,,-1,-1,-1,-1,-1,-,-,1,-,-,-,-1,40,1,0,0,39,0,0,0,0,0,0,0,0,0,0,0,0,-,-,-,-,-,1
219,0,1,4,39,3,0,0,0,1,1,1,137.73,548.625,0,0,0,20,20,20,20,20,0,400,126,130,126,218,0,6.3,13,18.9,43.6,81.8,34.25,60,17.955,17.55,16.065,26.16,1,351,135,190,137,187,0,29,1,,,-1,-1,-1,-1,-1,-,-,1,-,-,-,-1,28,1,0,33,26,0,0,0,0,0,0,0,0,0,0,0,0,-,-,-,-,-,1
220,0,1,4,40,2,0,0,0,1,2,2,91.7325,363.115,0,0,0,70,10,10,5,5,0,195,161,69,94,152,0,8.05,6.9,14.1,30.4,59.45,23.19,29.25,22.9425,9.315,11.985,18.24,1,186,105,89,98,104,100,26,1,,,-1,-1,-1,-1,-1,-,-,1,-,-,-,-1,27,1,0,51,25,0,0,0,0,0,0,0,0,0,0,0,0,-,-,-,-,-,1
221,0,1,4,41,2,0,0,0,1,2,2,161.7325,623.115,0,0,0,0,0,0,0,30,70,195,161,69,94,152,0,8.05,6.9,14.1,30.4,59.45,23.19,29.25,22.9425,9.315,11.985,18.24,1,186,105,89,98,104,100,21,0,,,-1,-1,-1,-1,-1,-,-,1,-,-,-,-1,40,1,0,0,39,0,0,0,0,0,0,0,0,0,0,0,0,-,-,-,-,-,1
222,0,1,4,42,5,0,0,0,1,1,1,141.9375,561.555,0,0,0,50,20,15,10,5,0,574,129,86,70,141,0,6.45,8.6,10.5,28.2,53.75,25.63,86.1,18.3825,11.61,8.925,16.92,1,440,135,107,132,186,100,24,1,,,-1,-1,-1,-1,-1,-,-,1,-,-,-,-1,31,1,0,0,30,0,0,0,0,0,0,0,0,0,0,0,0,-,-,-,-,-,1
223,0,1,4,43,1,0,0,0,1,1,1,133.4025,535.98,0,0,0,5,10,10,25,50,0,208,89,250,188,265,0,4.45,25,28.2,53,110.65,42.68,31.2,12.6825,33.75,23.97,31.8,1,272,169,153,181,225,50,21,0,,,-1,-1,-1,-1,-1,-,-,1,-,-,-,-1,18,1,0,20,16,0,0,0,0,0,0,0,0,0,0,0,0,-,-,-,-,-,0
224,0,1,4,44,5,0,0,0,1,1,1,141.9375,561.555,0,0,0,35,35,10,10,10,0,574,129,86,70,141,0,6.45,8.6,10.5,28.2,53.75,25.63,86.1,18.3825,11.61,8.925,16.92,1,440,135,107,132,186,100,19,1,,,-1,-1,-1,-1,-1,-,-,1,-,-,-,-1,22,1,0,0,20,0,0,0,0,0,0,0,0,0,0,0,0,-,-,-,-,-,1
225,0,1,4,45,4,0,0,0,1,2,2,116.55,461.775,0,0,0,96,1,1,1,1,0,441,71,71,61,191,0,3.55,7.1,9.15,38.2,58,24.65,66.15,10.1175,9.585,7.7775,22.92,1,465,120,50,80,125,0,19,0,,,-1,-1,-1,-1,-1,-,-,1,-,-,-,-1,5,1,0,30,2,0,0,0,0,0,0,0,0,0,0,0,0,-,-,-,-,-,1
226,0,1,4,46,6,0,0,0,1,2,2,108.375,418.21,0,0,0,20,15,15,15,20,15,215,121,117,113,114,0,6.05,11.7,16.95,22.8,57.5,21.36,32.25,17.2425,15.795,14.4075,13.68,1,273,115,103,99,72,15,34,0,,,-1,-1,-1,-1,-1,-,-,1,-,-,-,-1,39,1,0,45,38,0,0,0,0,0,0,0,0,0,0,0,0,-,-,-,-,-,0
227,0,1,4,47,5,0,0,0,1,1,1,141.9375,561.555,0,0,0,80,0,0,0,20,0,574,129,86,70,141,0,6.45,8.6,10.5,28.2,53.75,25.63,86.1,18.3825,11.61,8.925,16.92,1,440,135,107,132,186,100,18,0,,,-1,-1,-1,-1,-1,-,-,1,-,-,-,-1,35,1,0,0,34,0,0,0,0,0,0,0,0,0,0,0,0,-,-,-,-,-,1
228,0,1,4,48,1,0,0,0,1,1,1,133.4025,535.98,0,0,0,0,0,0,0,100,0,208,89,250,188,265,0,4.45,25,28.2,53,110.65,42.68,31.2,12.6825,33.75,23.97,31.8,1,272,169,153,181,225,100,35,0,,,-1,-1,-1,-1,-1,-,-,1,-,-,-,-1,40,1,0,0,40,0,0,0,0,0,0,0,0,0,0,0,0,-,-,-,-,-,1
229,0,1,4,49,1,0,0,0,1,1,1,133.4025,535.98,0,0,0,0,0,100,0,0,0,208,89,250,188,265,0,4.45,25,28.2,53,110.65,42.68,31.2,12.6825,33.75,23.97,31.8,1,272,169,153,181,225,100,24,0,,,-1,-1,-1,-1,-1,-,-,1,-,-,-,-1,44,1,0,0,44,0,0,0,0,0,0,0,0,0,0,0,0,-,-,-,-,-,1
230,0,1,4,50,1,0,0,0,1,1,1,133.4025,535.98,0,0,0,20,20,20,20,20,0,208,89,250,188,265,0,4.45,25,28.2,53,110.65,42.68,31.2,12.6825,33.75,23.97,31.8,1,272,169,153,181,225,100,21,1,,,-1,-1,-1,-1,-1,-,-,1,-,-,-,-1,35,1,0,0,34,0,0,0,0,0,0,0,0,0,0,0,0,-,-,-,-,-,1
231,0,1,4,51,3,0,0,0,1,1,1,137.73,548.625,0,0,0,5,20,15,20,40,0,400,126,130,126,218,0,6.3,13,18.9,43.6,81.8,34.25,60,17.955,17.55,16.065,26.16,1,351,135,190,137,187,0,22,1,,,-1,-1,-1,-1,-1,-,-,1,-,-,-,-1,29,1,0,36,27,0,0,0,0,0,0,0,0,0,0,0,0,-,-,-,-,-,2
232,0,1,4,52,5,0,0,0,1,1,1,141.9375,561.555,0,0,0,100,0,0,0,0,0,574,129,86,70,141,0,6.45,8.6,10.5,28.2,53.75,25.63,86.1,18.3825,11.61,8.925,16.92,1,440,135,107,132,186,100,19,0,,,-1,-1,-1,-1,-1,-,-,1,-,-,-,-1,40,1,0,0,39,0,0,0,0,0,0,0,0,0,0,0,0,-,-,-,-,-,1
233,0,1,4,53,5,0,0,0,1,1,1,141.9375,561.555,0,0,0,30,10,0,10,50,0,574,129,86,70,141,0,6.45,8.6,10.5,28.2,53.75,25.63,86.1,18.3825,11.61,8.925,16.92,1,440,135,107,132,186,100,37,0,,,-1,-1,-1,-1,-1,-,-,1,-,-,-,-1,36,1,0,0,35,0,0,0,0,0,0,0,0,0,0,0,0,-,-,-,-,-,0
234,0,1,4,54,4,0,0,0,1,2,2,166.55,646.775,0,0,0,40,5,0,0,5,50,441,71,71,61,191,0,3.55,7.1,9.15,38.2,58,24.65,66.15,10.1175,9.585,7.7775,22.92,1,465,120,50,80,125,100,19,1,,,-1,-1,-1,-1,-1,-,-,1,-,-,-,-1,6,1,0,0,3,0,0,0,0,0,0,0,0,0,0,0,0,-,-,-,-,-,1
235,0,1,4,55,1,0,0,0,1,1,1,133.4025,535.98,0,0,0,13,14,30,28,15,0,208,89,250,188,265,0,4.45,25,28.2,53,110.65,42.68,31.2,12.6825,33.75,23.97,31.8,1,272,169,153,181,225,15,19,1,,,-1,-1,-1,-1,-1,-,-,1,-,-,-,-1,26,1,0,28,25,0,0,0,0,0,0,0,0,0,0,0,0,-,-,-,-,-,0
236,0,1,4,56,2,0,0,0,1,2,2,96.7325,396.115,0,0,0,50,10,0,0,35,5,195,161,69,94,152,0,8.05,6.9,14.1,30.4,59.45,23.19,29.25,22.9425,9.315,11.985,18.24,1,186,105,89,98,104,100,20,1,,,-1,-1,-1,-1,-1,-,-,1,-,-,-,-1,42,1,0,0,42,0,0,0,0,0,0,0,0,0,0,0,0,-,-,-,-,-,1
237,0,1,4,57,3,0,0,0,1,1,1,137.73,548.625,0,0,0,100,0,0,0,0,0,400,126,130,126,218,0,6.3,13,18.9,43.6,81.8,34.25,60,17.955,17.55,16.065,26.16,1,351,135,190,137,187,0,19,0,,,-1,-1,-1,-1,-1,-,-,1,-,-,-,-1,50,1,0,55,51,0,0,0,0,0,0,0,0,0,0,0,0,-,-,-,-,-,1
238,0,1,4,58,1,0,0,0,1,1,1,133.4025,535.98,0,0,0,0,5,20,55,20,0,208,89,250,188,265,0,4.45,25,28.2,53,110.65,42.68,31.2,12.6825,33.75,23.97,31.8,1,272,169,153,181,225,20,18,1,,,-1,-1,-1,-1,-1,-,-,1,-,-,-,-1,26,1,0,43,24,0,0,0,0,0,0,0,0,0,0,0,0,-,-,-,-,-,2
239,0,1,4,59,2,0,0,0,1,2,2,131.7325,473.115,0,0,0,0,15,15,15,15,40,195,161,69,94,152,0,8.05,6.9,14.1,30.4,59.45,23.19,29.25,22.9425,9.315,11.985,18.24,1,186,105,89,98,104,100,36,0,,,-1,-1,-1,-1,-1,-,-,1,-,-,-,-1,48,1,0,0,48,0,0,0,0,0,0,0,0,0,0,0,0,-,-,-,-,-,2
240,0,1,4,60,1,0,0,0,1,1,1,133.4025,535.98,0,0,0,20,15,30,20,15,0,208,89,250,188,265,0,4.45,25,28.2,53,110.65,42.68,31.2,12.6825,33.75,23.97,31.8,1,272,169,153,181,225,15,20,0,,,-1,-1,-1,-1,-1,-,-,1,-,-,-,-1,38,1,0,46,37,0,0,0,0,0,0,0,0,0,0,0,0,-,-,-,-,-,2
241,0,1,5,1,4,0,0,0,1,2,2,114.975,576.75,0,0,0,30,40,20,0,10,0,470,55,30,25,245,0,2.75,3,3.75,49,58.5,30.5,70.5,7.8375,4.05,3.1875,29.4,1,441,71,71,61,191,10,26,1,,,-1,-1,-1,-1,-1,-,-,1,-,-,-,-1,33,1,0,42,33,0,0,0,0,0,0,0,0,0,0,0,0,-,-,-,-,-,2
242,0,1,5,2,5,0,0,0,1,1,1,138.81,700.365,0,0,0,90,0,0,0,10,0,441,108,127,166,158,0,5.4,12.7,24.9,31.6,74.6,33.09,66.15,15.39,17.145,21.165,18.96,1,574,129,86,70,141,100,21,1,,,-1,-1,-1,-1,-1,-,-,1,-,-,-,-1,42,1,0,0,43,0,0,0,0,0,0,0,0,0,0,0,0,-,-,-,-,-,1
243,0,1,5,3,1,0,0,0,1,1,1,132.7875,668.7675,0,0,0,20,20,20,20,20,0,160,150,242,131,317,0,7.5,24.2,19.65,63.4,114.75,54.155,24,21.375,32.67,16.7025,38.04,1,208,89,250,188,265,30,49,1,,,-1,-1,-1,-1,-1,-,-,1,-,-,-,-1,16,1,0,41,15,0,0,0,0,0,0,0,0,0,0,0,0,-,-,-,-,-,0
244,0,1,5,4,2,0,0,0,1,2,2,85.7325,662.8475,0,0,0,20,20,20,20,20,0,120,113,105,130,174,0,5.65,10.5,19.5,34.8,70.45,30.235,18,16.1025,14.175,16.575,20.88,1,195,161,69,94,152,100,58,0,,,-1,-1,-1,-1,-1,-,-,1,-,-,-,-1,23,1,0,58,23,0,0,0,0,0,0,0,0,0,0,0,0,-,-,-,-,-,1
245,0,1,5,5,3,0,0,0,1,1,1,137.625,686.25,0,0,0,50,15,10,15,10,0,360,140,165,160,175,0,7,16.5,24,35,82.5,42.5,54,19.95,22.275,20.4,21,1,400,126,130,126,218,0,18,0,,,-1,-1,-1,-1,-1,-,-,1,-,-,-,-1,21,1,0,30,21,0,0,0,0,0,0,0,0,0,0,0,0,-,-,-,-,-,1
246,0,1,5,6,3,0,0,0,1,1,1,137.625,686.25,0,0,0,20,20,0,20,40,0,360,140,165,160,175,0,7,16.5,24,35,82.5,42.5,54,19.95,22.275,20.4,21,1,400,126,130,126,218,0,18,1,,,-1,-1,-1,-1,-1,-,-,1,-,-,-,-1,34,1,0,36,34,0,0,0,0,0,0,0,0,0,0,0,0,-,-,-,-,-,2
247,0,1,5,7,6,0,0,0,1,2,2,126.7525,622.9625,0,0,0,50,12,5,5,0,28,277,72,104,115,152,0,3.6,10.4,17.25,30.4,61.65,27.525,41.55,10.26,14.04,14.6625,18.24,1,215,121,117,113,114,100,21,1,,,-1,-1,-1,-1,-1,-,-,1,-,-,-,-1,42,1,0,0,43,0,0,0,0,0,0,0,0,0,0,0,0,-,-,-,-,-,2
248,0,1,5,8,6,0,0,0,1,2,2,179.7525,879.9625,0,0,0,5,4,3,2,5,81,277,72,104,115,152,0,3.6,10.4,17.25,30.4,61.65,27.525,41.55,10.26,14.04,14.6625,18.24,1,215,121,117,113,114,100,23,0,,,-1,-1,-1,-1,-1,-,-,1,-,-,-,-1,34,1,0,0,33,0,0,0,0,0,0,0,0,0,0,0,0,-,-,-,-,-,2
249,0,1,5,9,5,0,0,0,1,1,1,138.81,700.365,0,0,0,20,20,30,20,10,0,441,108,127,166,158,0,5.4,12.7,24.9,31.6,74.6,33.09,66.15,15.39,17.145,21.165,18.96,1,574,129,86,70,141,0,24,0,,,-1,-1,-1,-1,-1,-,-,1,-,-,-,-1,27,1,0,28,27,0,0,0,0,0,0,0,0,0,0,0,0,-,-,-,-,-,0
250,0,1,5,10,6,0,0,0,1,2,2,134.7525,527.9625,0,0,0,7,1,1,3,52,36,277,72,104,115,152,0,3.6,10.4,17.25,30.4,61.65,27.525,41.55,10.26,14.04,14.6625,18.24,0,215,121,117,113,114,100,24,1,,,-1,-1,-1,-1,-1,-,-,1,-,-,-,-1,0,1,0,0,0,1,0,6,5,6,4,1,3,2,7,2,1,-,-,-,-,-,2
251,0,1,5,11,4,0,0,0,1,2,2,114.975,706.75,0,0,0,50,5,5,5,35,0,470,55,30,25,245,0,2.75,3,3.75,49,58.5,30.5,70.5,7.8375,4.05,3.1875,29.4,1,441,71,71,61,191,35,18,1,,,-1,-1,-1,-1,-1,-,-,1,-,-,-,-1,46,1,0,52,48,0,0,0,0,0,0,0,0,0,0,0,0,-,-,-,-,-,2
252,0,1,5,12,6,0,0,0,1,2,2,148.7525,651.9625,0,0,0,0,5,10,15,20,50,277,72,104,115,152,0,3.6,10.4,17.25,30.4,61.65,27.525,41.55,10.26,14.04,14.6625,18.24,1,215,121,117,113,114,100,39,1,,,-1,-1,-1,-1,-1,-,-,1,-,-,-,-1,31,1,0,0,31,0,0,0,0,0,0,0,0,0,0,0,0,-,-,-,-,-,2
253,0,1,5,13,4,0,0,0,1,2,2,114.975,576.75,0,0,0,80,5,0,5,10,0,470,55,30,25,245,0,2.75,3,3.75,49,58.5,30.5,70.5,7.8375,4.05,3.1875,29.4,1,441,71,71,61,191,80,29,0,,,-1,-1,-1,-1,-1,-,-,1,-,-,-,-1,32,1,0,37,32,0,0,0,0,0,0,0,0,0,0,0,0,-,-,-,-,-,0
254,0,1,5,14,3,0,0,0,1,1,1,137.625,686.25,0,0,0,10,20,20,30,20,0,360,140,165,160,175,0,7,16.5,24,35,82.5,42.5,54,19.95,22.275,20.4,21,1,400,126,130,126,218,0,46,1,,,-1,-1,-1,-1,-1,-,-,1,-,-,-,-1,19,1,0,24,18,0,0,0,0,0,0,0,0,0,0,0,0,-,-,-,-,-,2
255,0,1,5,15,4,0,0,0,1,2,2,114.975,586.75,0,0,0,0,0,0,0,100,0,470,55,30,25,245,0,2.75,3,3.75,49,58.5,30.5,70.5,7.8375,4.05,3.1875,29.4,1,441,71,71,61,191,100,27,1,,,-1,-1,-1,-1,-1,-,-,1,-,-,-,-1,48,1,0,0,49,0,0,0,0,0,0,0,0,0,0,0,0,-,-,-,-,-,1
256,0,1,5,16,5,0,0,0,1,1,1,138.81,700.365,0,0,0,91,3,2,1,3,0,441,108,127,166,158,0,5.4,12.7,24.9,31.6,74.6,33.09,66.15,15.39,17.145,21.165,18.96,1,574,129,86,70,141,3,23,0,,,-1,-1,-1,-1,-1,-,-,1,-,-,-,-1,47,1,0,52,48,0,0,0,0,0,0,0,0,0,0,0,0,-,-,-,-,-,1
257,0,1,5,17,6,0,0,0,1,2,2,98.7525,446.9625,0,0,0,10,10,30,30,20,0,277,72,104,115,152,0,3.6,10.4,17.25,30.4,61.65,27.525,41.55,10.26,14.04,14.6625,18.24,1,215,121,117,113,114,20,18,1,,,-1,-1,-1,-1,-1,-,-,1,-,-,-,-1,12,1,0,18,11,0,0,0,0,0,0,0,0,0,0,0,0,-,-,-,-,-,0
258,0,1,5,18,2,0,0,0,1,2,2,170.7325,832.8475,0,0,0,5,3,1,2,4,85,120,113,105,130,174,0,5.65,10.5,19.5,34.8,70.45,30.235,18,16.1025,14.175,16.575,20.88,1,195,161,69,94,152,100,21,1,,,-1,-1,-1,-1,-1,-,-,1,-,-,-,-1,41,1,0,0,41,0,0,0,0,0,0,0,0,0,0,0,0,-,-,-,-,-,0
259,0,1,5,19,3,0,0,0,1,1,1,137.625,686.25,0,0,0,35,25,10,25,5,0,360,140,165,160,175,0,7,16.5,24,35,82.5,42.5,54,19.95,22.275,20.4,21,1,400,126,130,126,218,0,21,1,,,-1,-1,-1,-1,-1,-,-,1,-,-,-,-1,24,1,0,25,23,0,0,0,0,0,0,0,0,0,0,0,0,-,-,-,-,-,0
260,0,1,5,20,5,0,0,0,1,1,1,138.81,700.365,0,0,0,0,0,20,80,0,0,441,108,127,166,158,0,5.4,12.7,24.9,31.6,74.6,33.09,66.15,15.39,17.145,21.165,18.96,1,574,129,86,70,141,0,24,1,,,-1,-1,-1,-1,-1,-,-,1,-,-,-,-1,28,1,0,33,27,0,0,0,0,0,0,0,0,0,0,0,0,-,-,-,-,-,1
261,0,1,5,21,6,0,0,0,1,2,2,103.7525,606.9625,0,0,0,0,20,25,30,20,5,277,72,104,115,152,0,3.6,10.4,17.25,30.4,61.65,27.525,41.55,10.26,14.04,14.6625,18.24,1,215,121,117,113,114,25,22,1,,,-1,-1,-1,-1,-1,-,-,1,-,-,-,-1,39,1,0,43,39,0,0,0,0,0,0,0,0,0,0,0,0,-,-,-,-,-,0
262,0,1,5,22,3,0,0,0,1,1,1,137.625,686.25,0,0,0,40,0,5,5,50,0,360,140,165,160,175,0,7,16.5,24,35,82.5,42.5,54,19.95,22.275,20.4,21,1,400,126,130,126,218,100,24,1,,,-1,-1,-1,-1,-1,-,-,1,-,-,-,-1,31,1,0,0,31,0,0,0,0,0,0,0,0,0,0,0,0,-,-,-,-,-,0
263,0,1,5,23,2,0,0,0,1,2,2,98.7325,473.8475,0,0,0,15,10,34,23,5,13,120,113,105,130,174,0,5.65,10.5,19.5,34.8,70.45,30.235,18,16.1025,14.175,16.575,20.88,1,195,161,69,94,152,5,18,0,,,-1,-1,-1,-1,-1,-,-,1,-,-,-,-1,4,1,0,14,2,0,0,0,0,0,0,0,0,0,0,0,0,-,-,-,-,-,1
264,0,1,5,24,4,0,0,0,1,2,2,144.975,606.75,0,0,0,70,0,0,0,0,30,470,55,30,25,245,0,2.75,3,3.75,49,58.5,30.5,70.5,7.8375,4.05,3.1875,29.4,1,441,71,71,61,191,100,19,0,,,-1,-1,-1,-1,-1,-,-,1,-,-,-,-1,41,1,0,0,41,0,0,0,0,0,0,0,0,0,0,0,0,-,-,-,-,-,2
265,0,1,5,25,2,0,0,0,1,2,2,105.7325,548.8475,0,0,0,0,20,20,20,20,20,120,113,105,130,174,0,5.65,10.5,19.5,34.8,70.45,30.235,18,16.1025,14.175,16.575,20.88,1,195,161,69,94,152,100,41,1,,,-1,-1,-1,-1,-1,-,-,1,-,-,-,-1,43,1,0,0,43,0,0,0,0,0,0,0,0,0,0,0,0,-,-,-,-,-,1
266,0,1,5,26,6,0,0,0,1,2,2,98.7525,446.9625,0,0,0,100,0,0,0,0,0,277,72,104,115,152,0,3.6,10.4,17.25,30.4,61.65,27.525,41.55,10.26,14.04,14.6625,18.24,1,215,121,117,113,114,100,19,0,,,-1,-1,-1,-1,-1,-,-,1,-,-,-,-1,35,1,0,0,35,0,0,0,0,0,0,0,0,0,0,0,0,-,-,-,-,-,2
267,0,1,5,27,6,0,0,0,1,2,2,118.7525,756.9625,0,0,0,80,0,0,0,0,20,277,72,104,115,152,0,3.6,10.4,17.25,30.4,61.65,27.525,41.55,10.26,14.04,14.6625,18.24,1,215,121,117,113,114,100,19,0,,,-1,-1,-1,-1,-1,-,-,1,-,-,-,-1,39,1,0,0,39,0,0,0,0,0,0,0,0,0,0,0,0,-,-,-,-,-,0
268,0,1,5,28,3,0,0,0,1,1,1,137.625,686.25,0,0,0,40,5,20,15,20,0,360,140,165,160,175,0,7,16.5,24,35,82.5,42.5,54,19.95,22.275,20.4,21,1,400,126,130,126,218,15,24,1,,,-1,-1,-1,-1,-1,-,-,1,-,-,-,-1,32,1,0,36,31,0,0,0,0,0,0,0,0,0,0,0,0,-,-,-,-,-,0
269,0,1,5,29,1,0,0,0,1,1,1,132.7875,668.7675,0,0,0,20,10,20,20,30,0,160,150,242,131,317,0,7.5,24.2,19.65,63.4,114.75,54.155,24,21.375,32.67,16.7025,38.04,1,208,89,250,188,265,100,19,1,,,-1,-1,-1,-1,-1,-,-,1,-,-,-,-1,28,1,0,0,27,0,0,0,0,0,0,0,0,0,0,0,0,-,-,-,-,-,2
270,0,1,5,30,6,0,0,0,1,2,2,148.7525,746.9625,0,0,0,10,10,10,10,10,50,277,72,104,115,152,0,3.6,10.4,17.25,30.4,61.65,27.525,41.55,10.26,14.04,14.6625,18.24,1,215,121,117,113,114,100,19,1,,,-1,-1,-1,-1,-1,-,-,1,-,-,-,-1,36,1,0,0,36,0,0,0,0,0,0,0,0,0,0,0,0,-,-,-,-,-,2
271,0,1,5,31,4,0,0,0,1,2,2,114.975,636.75,0,0,0,100,0,0,0,0,0,470,55,30,25,245,0,2.75,3,3.75,49,58.5,30.5,70.5,7.8375,4.05,3.1875,29.4,1,441,71,71,61,191,100,20,0,,,-1,-1,-1,-1,-1,-,-,1,-,-,-,-1,47,1,0,0,48,0,0,0,0,0,0,0,0,0,0,0,0,-,-,-,-,-,1
272,0,1,5,32,3,0,0,0,1,1,1,137.625,686.25,0,0,0,40,10,20,20,10,0,360,140,165,160,175,0,7,16.5,24,35,82.5,42.5,54,19.95,22.275,20.4,21,1,400,126,130,126,218,100,19,1,,,-1,-1,-1,-1,-1,-,-,1,-,-,-,-1,39,1,0,0,39,0,0,0,0,0,0,0,0,0,0,0,0,-,-,-,-,-,2
273,0,1,5,33,5,0,0,0,1,1,1,138.81,700.365,0,0,0,50,0,0,0,50,0,441,108,127,166,158,0,5.4,12.7,24.9,31.6,74.6,33.09,66.15,15.39,17.145,21.165,18.96,1,574,129,86,70,141,100,18,1,,,-1,-1,-1,-1,-1,-,-,1,-,-,-,-1,33,1,0,0,32,0,0,0,0,0,0,0,0,0,0,0,0,-,-,-,-,-,1
274,0,1,5,34,2,0,0,0,1,2,2,115.7325,563.8475,0,0,0,30,15,5,0,20,30,120,113,105,130,174,0,5.65,10.5,19.5,34.8,70.45,30.235,18,16.1025,14.175,16.575,20.88,1,195,161,69,94,152,30,18,1,,,-1,-1,-1,-1,-1,-,-,1,-,-,-,-1,26,1,0,30,25,0,0,0,0,0,0,0,0,0,0,0,0,-,-,-,-,-,0
275,0,1,5,35,2,0,0,0,1,2,2,125.7325,709.8475,0,0,0,0,0,0,30,30,40,120,113,105,130,174,0,5.65,10.5,19.5,34.8,70.45,30.235,18,16.1025,14.175,16.575,20.88,1,195,161,69,94,152,40,55,1,,,-1,-1,-1,-1,-1,-,-,1,-,-,-,-1,5,1,0,17,3,0,0,0,0,0,0,0,0,0,0,0,0,-,-,-,-,-,1
276,0,1,5,36,4,0,0,0,1,2,2,174.975,831.75,0,0,0,10,0,0,0,30,60,470,55,30,25,245,0,2.75,3,3.75,49,58.5,30.5,70.5,7.8375,4.05,3.1875,29.4,1,441,71,71,61,191,100,25,0,,,-1,-1,-1,-1,-1,-,-,1,-,-,-,-1,22,1,0,51,20,0,0,0,0,0,0,0,0,0,0,0,0,-,-,-,-,-,2
277,0,1,5,37,1,0,0,0,1,1,1,132.7875,668.7675,0,0,0,20,20,60,0,0,0,160,150,242,131,317,0,7.5,24.2,19.65,63.4,114.75,54.155,24,21.375,32.67,16.7025,38.04,1,208,89,250,188,265,0,22,1,,,-1,-1,-1,-1,-1,-,-,1,-,-,-,-1,41,1,0,43,41,0,0,0,0,0,0,0,0,0,0,0,0,-,-,-,-,-,1
278,0,1,5,38,4,0,0,0,1,2,2,154.975,711.75,0,0,0,0,0,0,10,50,40,470,55,30,25,245,0,2.75,3,3.75,49,58.5,30.5,70.5,7.8375,4.05,3.1875,29.4,1,441,71,71,61,191,100,22,1,,,-1,-1,-1,-1,-1,-,-,1,-,-,-,-1,42,1,0,0,42,0,0,0,0,0,0,0,0,0,0,0,0,-,-,-,-,-,1
279,0,1,5,39,3,0,0,0,1,1,1,137.625,686.25,0,0,0,20,30,50,0,0,0,360,140,165,160,175,0,7,16.5,24,35,82.5,42.5,54,19.95,22.275,20.4,21,1,400,126,130,126,218,0,29,1,,,-1,-1,-1,-1,-1,-,-,1,-,-,-,-1,21,1,0,23,19,0,0,0,0,0,0,0,0,0,0,0,0,-,-,-,-,-,1
280,0,1,5,40,2,0,0,0,1,2,2,135.7325,498.8475,0,0,0,10,10,10,10,10,50,120,113,105,130,174,0,5.65,10.5,19.5,34.8,70.45,30.235,18,16.1025,14.175,16.575,20.88,1,195,161,69,94,152,100,26,1,,,-1,-1,-1,-1,-1,-,-,1,-,-,-,-1,36,1,0,0,35,0,0,0,0,0,0,0,0,0,0,0,0,-,-,-,-,-,1
281,0,1,5,41,2,0,0,0,1,2,2,145.7325,768.8475,0,0,0,0,0,0,0,40,60,120,113,105,130,174,0,5.65,10.5,19.5,34.8,70.45,30.235,18,16.1025,14.175,16.575,20.88,1,195,161,69,94,152,100,21,0,,,-1,-1,-1,-1,-1,-,-,1,-,-,-,-1,47,1,0,0,48,0,0,0,0,0,0,0,0,0,0,0,0,-,-,-,-,-,1
282,0,1,5,42,5,0,0,0,1,1,1,138.81,700.365,0,0,0,50,20,15,5,10,0,441,108,127,166,158,0,5.4,12.7,24.9,31.6,74.6,33.09,66.15,15.39,17.145,21.165,18.96,1,574,129,86,70,141,100,24,1,,,-1,-1,-1,-1,-1,-,-,1,-,-,-,-1,30,1,0,0,29,0,0,0,0,0,0,0,0,0,0,0,0,-,-,-,-,-,1
283,0,1,5,43,1,0,0,0,1,1,1,132.7875,668.7675,0,0,0,30,30,0,12,28,0,160,150,242,131,317,0,7.5,24.2,19.65,63.4,114.75,54.155,24,21.375,32.67,16.7025,38.04,1,208,89,250,188,265,28,21,0,,,-1,-1,-1,-1,-1,-,-,1,-,-,-,-1,31,1,0,35,30,0,0,0,0,0,0,0,0,0,0,0,0,-,-,-,-,-,0
284,0,1,5,44,5,0,0,0,1,1,1,138.81,700.365,0,0,0,0,25,35,20,20,0,441,108,127,166,158,0,5.4,12.7,24.9,31.6,74.6,33.09,66.15,15.39,17.145,21.165,18.96,1,574,129,86,70,141,0,19,1,,,-1,-1,-1,-1,-1,-,-,1,-,-,-,-1,18,1,0,22,16,0,0,0,0,0,0,0,0,0,0,0,0,-,-,-,-,-,1
285,0,1,5,45,4,0,0,0,1,2,2,114.975,576.75,0,0,0,100,0,0,0,0,0,470,55,30,25,245,0,2.75,3,3.75,49,58.5,30.5,70.5,7.8375,4.05,3.1875,29.4,1,441,71,71,61,191,100,19,0,,,-1,-1,-1,-1,-1,-,-,1,-,-,-,-1,31,1,0,0,30,0,0,0,0,0,0,0,0,0,0,0,0,-,-,-,-,-,1
286,0,1,5,46,6,0,0,0,1,2,2,108.7525,526.9625,0,0,0,15,10,20,20,25,10,277,72,104,115,152,0,3.6,10.4,17.25,30.4,61.65,27.525,41.55,10.26,14.04,14.6625,18.24,1,215,121,117,113,114,10,34,0,,,-1,-1,-1,-1,-1,-,-,1,-,-,-,-1,43,1,0,47,43,0,0,0,0,0,0,0,0,0,0,0,0,-,-,-,-,-,0
287,0,1,5,47,5,0,0,0,1,1,1,138.81,700.365,0,0,0,85,5,0,0,10,0,441,108,127,166,158,0,5.4,12.7,24.9,31.6,74.6,33.09,66.15,15.39,17.145,21.165,18.96,1,574,129,86,70,141,100,18,0,,,-1,-1,-1,-1,-1,-,-,1,-,-,-,-1,3,1,0,0,2,0,0,0,0,0,0,0,0,0,0,0,0,-,-,-,-,-,1
288,0,1,5,48,1,0,0,0,1,1,1,132.7875,668.7675,0,0,0,6,8,6,17,63,0,160,150,242,131,317,0,7.5,24.2,19.65,63.4,114.75,54.155,24,21.375,32.67,16.7025,38.04,0,208,89,250,188,265,100,35,0,,,-1,-1,-1,-1,-1,-,-,1,-,-,-,-1,0,1,0,0,0,17,0,5,1,5,3,2,4,0,6,2,17,-,-,-,-,-,1
289,0,1,5,49,1,0,0,0,1,1,1,132.7875,668.7675,0,0,0,10,30,50,0,10,0,160,150,242,131,317,0,7.5,24.2,19.65,63.4,114.75,54.155,24,21.375,32.67,16.7025,38.04,1,208,89,250,188,265,100,24,0,,,-1,-1,-1,-1,-1,-,-,1,-,-,-,-1,22,1,0,0,20,0,0,0,0,0,0,0,0,0,0,0,0,-,-,-,-,-,1
290,0,1,5,50,1,0,0,0,1,1,1,132.7875,668.7675,0,0,0,20,0,30,20,30,0,160,150,242,131,317,0,7.5,24.2,19.65,63.4,114.75,54.155,24,21.375,32.67,16.7025,38.04,1,208,89,250,188,265,0,21,1,,,-1,-1,-1,-1,-1,-,-,1,-,-,-,-1,28,1,0,30,27,0,0,0,0,0,0,0,0,0,0,0,0,-,-,-,-,-,1
291,0,1,5,51,3,0,0,0,1,1,1,137.625,686.25,0,0,0,5,15,30,30,20,0,360,140,165,160,175,0,7,16.5,24,35,82.5,42.5,54,19.95,22.275,20.4,21,1,400,126,130,126,218,0,22,1,,,-1,-1,-1,-1,-1,-,-,1,-,-,-,-1,33,1,0,41,32,0,0,0,0,0,0,0,0,0,0,0,0,-,-,-,-,-,2
292,0,1,5,52,5,0,0,0,1,1,1,138.81,700.365,0,0,0,20,20,20,20,20,0,441,108,127,166,158,0,5.4,12.7,24.9,31.6,74.6,33.09,66.15,15.39,17.145,21.165,18.96,1,574,129,86,70,141,0,19,0,,,-1,-1,-1,-1,-1,-,-,1,-,-,-,-1,41,1,0,42,41,0,0,0,0,0,0,0,0,0,0,0,0,-,-,-,-,-,1
293,0,1,5,53,5,0,0,0,1,1,1,138.81,700.365,0,0,0,35,15,5,20,25,0,441,108,127,166,158,0,5.4,12.7,24.9,31.6,74.6,33.09,66.15,15.39,17.145,21.165,18.96,1,574,129,86,70,141,100,37,0,,,-1,-1,-1,-1,-1,-,-,1,-,-,-,-1,35,1,0,0,34,0,0,0,0,0,0,0,0,0,0,0,0,-,-,-,-,-,0
294,0,1,5,54,4,0,0,0,1,2,2,159.975,806.75,0,0,0,30,5,5,5,10,45,470,55,30,25,245,0,2.75,3,3.75,49,58.5,30.5,70.5,7.8375,4.05,3.1875,29.4,1,441,71,71,61,191,100,19,1,,,-1,-1,-1,-1,-1,-,-,1,-,-,-,-1,27,1,0,0,25,0,0,0,0,0,0,0,0,0,0,0,0,-,-,-,-,-,1
295,0,1,5,55,1,0,0,0,1,1,1,132.7875,668.7675,0,0,0,14,7,36,32,11,0,160,150,242,131,317,0,7.5,24.2,19.65,63.4,114.75,54.155,24,21.375,32.67,16.7025,38.04,1,208,89,250,188,265,11,19,1,,,-1,-1,-1,-1,-1,-,-,1,-,-,-,-1,28,1,0,31,27,0,0,0,0,0,0,0,0,0,0,0,0,-,-,-,-,-,0
296,0,1,5,56,2,0,0,0,1,2,2,105.7325,501.8475,0,0,0,40,20,0,10,10,20,120,113,105,130,174,0,5.65,10.5,19.5,34.8,70.45,30.235,18,16.1025,14.175,16.575,20.88,1,195,161,69,94,152,100,20,1,,,-1,-1,-1,-1,-1,-,-,1,-,-,-,-1,39,1,0,0,38,0,0,0,0,0,0,0,0,0,0,0,0,-,-,-,-,-,1
297,0,1,5,57,3,0,0,0,1,1,1,137.625,686.25,0,0,0,100,0,0,0,0,0,360,140,165,160,175,0,7,16.5,24,35,82.5,42.5,54,19.95,22.275,20.4,21,1,400,126,130,126,218,0,19,0,,,-1,-1,-1,-1,-1,-,-,1,-,-,-,-1,51,1,0,53,52,0,0,0,0,0,0,0,0,0,0,0,0,-,-,-,-,-,1
298,0,1,5,58,1,0,0,0,1,1,1,132.7875,668.7675,0,0,0,0,0,0,0,100,0,160,150,242,131,317,0,7.5,24.2,19.65,63.4,114.75,54.155,24,21.375,32.67,16.7025,38.04,1,208,89,250,188,265,100,18,1,,,-1,-1,-1,-1,-1,-,-,1,-,-,-,-1,45,1,0,0,45,0,0,0,0,0,0,0,0,0,0,0,0,-,-,-,-,-,2
299,0,1,5,59,2,0,0,0,1,2,2,125.7325,598.8475,0,0,0,0,15,15,15,15,40,120,113,105,130,174,0,5.65,10.5,19.5,34.8,70.45,30.235,18,16.1025,14.175,16.575,20.88,1,195,161,69,94,152,100,36,0,,,-1,-1,-1,-1,-1,-,-,1,-,-,-,-1,51,1,0,0,52,0,0,0,0,0,0,0,0,0,0,0,0,-,-,-,-,-,2
300,0,1,5,60,1,0,0,0,1,1,1,132.7875,668.7675,0,0,0,20,25,20,10,25,0,160,150,242,131,317,0,7.5,24.2,19.65,63.4,114.75,54.155,24,21.375,32.67,16.7025,38.04,1,208,89,250,188,265,15,20,0,,,-1,-1,-1,-1,-1,-,-,1,-,-,-,-1,43,1,0,47,43,0,0,0,0,0,0,0,0,0,0,0,0,-,-,-,-,-,2
301,0,1,6,1,4,0,0,0,1,2,2,87.39,664.14,0,0,0,40,30,10,10,10,0,310,58,66,26,170,0,2.9,6.6,3.9,34,47.4,35.24,46.5,8.265,8.91,3.315,20.4,1,470,55,30,25,245,0,26,1,,,-1,-1,-1,-1,-1,-,-,1,-,-,-,-1,27,1,0,30,27,0,0,0,0,0,0,0,0,0,0,0,0,-,-,-,-,-,2
302,0,1,6,2,5,0,0,0,1,1,1,141.6375,842.0025,0,0,0,80,0,0,10,10,0,525,160,110,85,120,0,8,11,12.75,24,55.75,38.665,78.75,22.8,14.85,10.8375,14.4,1,441,108,127,166,158,100,21,1,,,-1,-1,-1,-1,-1,-,-,1,-,-,-,-1,43,1,0,0,44,0,0,0,0,0,0,0,0,0,0,0,0,-,-,-,-,-,1
303,0,1,6,3,1,0,0,0,1,1,1,133.0275,801.795,0,0,0,20,20,20,20,20,0,157,154,240,167,282,0,7.7,24,25.05,56.4,113.15,65.47,23.55,21.945,32.4,21.2925,33.84,1,160,150,242,131,317,100,49,1,,,-1,-1,-1,-1,-1,-,-,1,-,-,-,-1,37,1,0,52,37,0,0,0,0,0,0,0,0,0,0,0,0,-,-,-,-,-,0
304,0,1,6,4,2,0,0,0,1,2,2,142.5025,805.35,0,0,0,0,10,10,10,15,55,76,102,103,163,224,0,5.1,10.3,24.45,44.8,84.65,38.7,11.4,14.535,13.905,20.7825,26.88,1,120,113,105,130,174,100,58,0,,,-1,-1,-1,-1,-1,-,-,1,-,-,-,-1,20,1,0,49,20,0,0,0,0,0,0,0,0,0,0,0,0,-,-,-,-,-,1
305,0,1,6,5,3,0,0,0,1,1,1,137.805,824.055,0,0,0,45,20,15,10,10,0,405,113,145,125,212,0,5.65,14.5,18.75,42.4,81.3,50.63,60.75,16.1025,19.575,15.9375,25.44,1,360,140,165,160,175,0,18,0,,,-1,-1,-1,-1,-1,-,-,1,-,-,-,-1,20,1,0,22,20,0,0,0,0,0,0,0,0,0,0,0,0,-,-,-,-,-,1
306,0,1,6,6,3,0,0,0,1,1,1,137.805,824.055,0,0,0,20,10,25,15,30,0,405,113,145,125,212,0,5.65,14.5,18.75,42.4,81.3,50.63,60.75,16.1025,19.575,15.9375,25.44,1,360,140,165,160,175,0,18,1,,,-1,-1,-1,-1,-1,-,-,1,-,-,-,-1,9,1,0,9,8,0,0,0,0,0,0,0,0,0,0,0,0,-,-,-,-,-,2
307,0,1,6,7,6,0,0,0,1,2,2,146.7975,769.76,0,0,0,20,20,10,5,0,45,219,124,119,167,116,0,6.2,11.9,25.05,23.2,66.35,34.16,32.85,17.67,16.065,21.2925,13.92,1,277,72,104,115,152,100,21,1,,,-1,-1,-1,-1,-1,-,-,1,-,-,-,-1,49,1,0,0,50,0,0,0,0,0,0,0,0,0,0,0,0,-,-,-,-,-,2
308,0,1,6,8,6,0,0,0,1,2,2,186.7975,1066.76,0,0,0,5,4,3,2,1,85,219,124,119,167,116,0,6.2,11.9,25.05,23.2,66.35,34.16,32.85,17.67,16.065,21.2925,13.92,1,277,72,104,115,152,100,23,0,,,-1,-1,-1,-1,-1,-,-,1,-,-,-,-1,47,1,0,0,48,0,0,0,0,0,0,0,0,0,0,0,0,-,-,-,-,-,2
309,0,1,6,9,5,0,0,0,1,1,1,141.6375,842.0025,0,0,0,70,15,10,5,0,0,525,160,110,85,120,0,8,11,12.75,24,55.75,38.665,78.75,22.8,14.85,10.8375,14.4,1,441,108,127,166,158,0,24,0,,,-1,-1,-1,-1,-1,-,-,1,-,-,-,-1,22,1,0,22,21,0,0,0,0,0,0,0,0,0,0,0,0,-,-,-,-,-,0
310,0,1,6,10,6,0,0,0,1,2,2,101.7975,629.76,0,0,0,49,0,6,45,0,0,219,124,119,167,116,0,6.2,11.9,25.05,23.2,66.35,34.16,32.85,17.67,16.065,21.2925,13.92,0,277,72,104,115,152,100,24,1,,,-1,-1,-1,-1,-1,-,-,1,-,-,-,-1,0,1,0,0,0,0,0,6,1,4,3,2,6,5,7,5,0,-,-,-,-,-,2
311,0,1,6,11,4,0,0,0,1,2,2,127.39,834.14,0,0,0,5,20,20,10,5,40,310,58,66,26,170,0,2.9,6.6,3.9,34,47.4,35.24,46.5,8.265,8.91,3.315,20.4,1,470,55,30,25,245,100,18,1,,,-1,-1,-1,-1,-1,-,-,1,-,-,-,-1,45,1,0,0,46,0,0,0,0,0,0,0,0,0,0,0,0,-,-,-,-,-,2
312,0,1,6,12,6,0,0,0,1,2,2,121.7975,773.76,0,0,0,10,10,20,20,20,20,219,124,119,167,116,0,6.2,11.9,25.05,23.2,66.35,34.16,32.85,17.67,16.065,21.2925,13.92,1,277,72,104,115,152,20,39,1,,,-1,-1,-1,-1,-1,-,-,1,-,-,-,-1,21,1,0,22,21,0,0,0,0,0,0,0,0,0,0,0,0,-,-,-,-,-,2
313,0,1,6,13,4,0,0,0,1,2,2,137.39,714.14,0,0,0,50,0,0,0,0,50,310,58,66,26,170,0,2.9,6.6,3.9,34,47.4,35.24,46.5,8.265,8.91,3.315,20.4,1,470,55,30,25,245,100,29,0,,,-1,-1,-1,-1,-1,-,-,1,-,-,-,-1,32,1,0,0,33,0,0,0,0,0,0,0,0,0,0,0,0,-,-,-,-,-,0
314,0,1,6,14,3,0,0,0,1,1,1,137.805,824.055,0,0,0,20,20,15,25,20,0,405,113,145,125,212,0,5.65,14.5,18.75,42.4,81.3,50.63,60.75,16.1025,19.575,15.9375,25.44,1,360,140,165,160,175,0,46,1,,,-1,-1,-1,-1,-1,-,-,1,-,-,-,-1,18,1,0,23,17,0,0,0,0,0,0,0,0,0,0,0,0,-,-,-,-,-,2
315,0,1,6,15,4,0,0,0,1,2,2,87.39,674.14,0,0,0,0,0,0,0,100,0,310,58,66,26,170,0,2.9,6.6,3.9,34,47.4,35.24,46.5,8.265,8.91,3.315,20.4,1,470,55,30,25,245,100,27,1,,,-1,-1,-1,-1,-1,-,-,1,-,-,-,-1,34,1,0,0,35,0,0,0,0,0,0,0,0,0,0,0,0,-,-,-,-,-,1
316,0,1,6,16,5,0,0,0,1,1,1,141.6375,842.0025,0,0,0,100,0,0,0,0,0,525,160,110,85,120,0,8,11,12.75,24,55.75,38.665,78.75,22.8,14.85,10.8375,14.4,1,441,108,127,166,158,100,23,0,,,-1,-1,-1,-1,-1,-,-,1,-,-,-,-1,48,1,0,0,50,0,0,0,0,0,0,0,0,0,0,0,0,-,-,-,-,-,1
317,0,1,6,17,6,0,0,0,1,2,2,101.7975,548.76,0,0,0,30,10,20,20,20,0,219,124,119,167,116,0,6.2,11.9,25.05,23.2,66.35,34.16,32.85,17.67,16.065,21.2925,13.92,1,277,72,104,115,152,100,18,1,,,-1,-1,-1,-1,-1,-,-,1,-,-,-,-1,40,1,0,0,41,0,0,0,0,0,0,0,0,0,0,0,0,-,-,-,-,-,0
318,0,1,6,18,2,0,0,0,1,2,2,111.5025,944.35,0,0,0,21,5,11,28,11,24,76,102,103,163,224,0,5.1,10.3,24.45,44.8,84.65,38.7,11.4,14.535,13.905,20.7825,26.88,0,120,113,105,130,174,100,21,1,,,-1,-1,-1,-1,-1,-,-,1,-,-,-,-1,0,1,0,0,0,11,0,6,1,4,6,2,3,5,7,3,11,-,-,-,-,-,0
319,0,1,6,19,3,0,0,0,1,1,1,137.805,824.055,0,0,0,30,8,15,15,32,0,405,113,145,125,212,0,5.65,14.5,18.75,42.4,81.3,50.63,60.75,16.1025,19.575,15.9375,25.44,1,360,140,165,160,175,0,21,1,,,-1,-1,-1,-1,-1,-,-,1,-,-,-,-1,28,1,0,30,28,0,0,0,0,0,0,0,0,0,0,0,0,-,-,-,-,-,0
320,0,1,6,20,5,0,0,0,1,1,1,141.6375,842.0025,0,0,0,0,50,30,10,10,0,525,160,110,85,120,0,8,11,12.75,24,55.75,38.665,78.75,22.8,14.85,10.8375,14.4,1,441,108,127,166,158,0,24,1,,,-1,-1,-1,-1,-1,-,-,1,-,-,-,-1,0,1,0,15,-1,0,0,0,0,0,0,0,0,0,0,0,0,-,-,-,-,-,1
321,0,1,6,21,6,0,0,0,1,2,2,121.7975,728.76,0,0,0,10,25,15,20,10,20,219,124,119,167,116,0,6.2,11.9,25.05,23.2,66.35,34.16,32.85,17.67,16.065,21.2925,13.92,1,277,72,104,115,152,50,22,1,,,-1,-1,-1,-1,-1,-,-,1,-,-,-,-1,36,1,0,45,36,0,0,0,0,0,0,0,0,0,0,0,0,-,-,-,-,-,0
322,0,1,6,22,3,0,0,0,1,1,1,137.805,824.055,0,0,0,30,5,5,10,50,0,405,113,145,125,212,0,5.65,14.5,18.75,42.4,81.3,50.63,60.75,16.1025,19.575,15.9375,25.44,1,360,140,165,160,175,100,24,1,,,-1,-1,-1,-1,-1,-,-,1,-,-,-,-1,4,1,0,0,2,0,0,0,0,0,0,0,0,0,0,0,0,-,-,-,-,-,0
323,0,1,6,23,2,0,0,0,1,2,2,101.5025,575.35,0,0,0,15,12,22,20,17,14,76,102,103,163,224,0,5.1,10.3,24.45,44.8,84.65,38.7,11.4,14.535,13.905,20.7825,26.88,1,120,113,105,130,174,14,18,0,,,-1,-1,-1,-1,-1,-,-,1,-,-,-,-1,19,1,0,30,18,0,0,0,0,0,0,0,0,0,0,0,0,-,-,-,-,-,1
324,0,1,6,24,4,0,0,0,1,2,2,122.39,729.14,0,0,0,60,0,0,0,5,35,310,58,66,26,170,0,2.9,6.6,3.9,34,47.4,35.24,46.5,8.265,8.91,3.315,20.4,1,470,55,30,25,245,35,19,0,,,-1,-1,-1,-1,-1,-,-,1,-,-,-,-1,33,1,0,35,33,0,0,0,0,0,0,0,0,0,0,0,0,-,-,-,-,-,2
325,0,1,6,25,2,0,0,0,1,2,2,107.5025,656.35,0,0,0,0,20,20,30,10,20,76,102,103,163,224,0,5.1,10.3,24.45,44.8,84.65,38.7,11.4,14.535,13.905,20.7825,26.88,1,120,113,105,130,174,100,41,1,,,-1,-1,-1,-1,-1,-,-,1,-,-,-,-1,46,1,0,0,46,0,0,0,0,0,0,0,0,0,0,0,0,-,-,-,-,-,1
326,0,1,6,26,6,0,0,0,1,2,2,101.7975,548.76,0,0,0,15,30,15,20,20,0,219,124,119,167,116,0,6.2,11.9,25.05,23.2,66.35,34.16,32.85,17.67,16.065,21.2925,13.92,1,277,72,104,115,152,0,19,0,,,-1,-1,-1,-1,-1,-,-,1,-,-,-,-1,23,1,0,24,22,0,0,0,0,0,0,0,0,0,0,0,0,-,-,-,-,-,2
327,0,1,6,27,6,0,0,0,1,2,2,151.7975,908.76,0,0,0,50,0,0,0,0,50,219,124,119,167,116,0,6.2,11.9,25.05,23.2,66.35,34.16,32.85,17.67,16.065,21.2925,13.92,1,277,72,104,115,152,100,19,0,,,-1,-1,-1,-1,-1,-,-,1,-,-,-,-1,40,1,0,0,41,0,0,0,0,0,0,0,0,0,0,0,0,-,-,-,-,-,0
328,0,1,6,28,3,0,0,0,1,1,1,137.805,824.055,0,0,0,50,5,20,5,20,0,405,113,145,125,212,0,5.65,14.5,18.75,42.4,81.3,50.63,60.75,16.1025,19.575,15.9375,25.44,1,360,140,165,160,175,0,24,1,,,-1,-1,-1,-1,-1,-,-,1,-,-,-,-1,14,1,0,15,13,0,0,0,0,0,0,0,0,0,0,0,0,-,-,-,-,-,0
329,0,1,6,29,1,0,0,0,1,1,1,133.0275,801.795,0,0,0,15,20,35,20,10,0,157,154,240,167,282,0,7.7,24,25.05,56.4,113.15,65.47,23.55,21.945,32.4,21.2925,33.84,1,160,150,242,131,317,100,19,1,,,-1,-1,-1,-1,-1,-,-,1,-,-,-,-1,28,1,0,0,28,0,0,0,0,0,0,0,0,0,0,0,0,-,-,-,-,-,2
330,0,1,6,30,6,0,0,0,1,2,2,131.7975,878.76,0,0,0,20,10,10,10,20,30,219,124,119,167,116,0,6.2,11.9,25.05,23.2,66.35,34.16,32.85,17.67,16.065,21.2925,13.92,1,277,72,104,115,152,100,19,1,,,-1,-1,-1,-1,-1,-,-,1,-,-,-,-1,36,1,0,0,36,0,0,0,0,0,0,0,0,0,0,0,0,-,-,-,-,-,2
331,0,1,6,31,4,0,0,0,1,2,2,97.39,734.14,0,0,0,90,0,0,0,0,10,310,58,66,26,170,0,2.9,6.6,3.9,34,47.4,35.24,46.5,8.265,8.91,3.315,20.4,1,470,55,30,25,245,100,20,0,,,-1,-1,-1,-1,-1,-,-,1,-,-,-,-1,43,1,0,0,44,0,0,0,0,0,0,0,0,0,0,0,0,-,-,-,-,-,1
332,0,1,6,32,3,0,0,0,1,1,1,137.805,824.055,0,0,0,40,10,10,30,10,0,405,113,145,125,212,0,5.65,14.5,18.75,42.4,81.3,50.63,60.75,16.1025,19.575,15.9375,25.44,1,360,140,165,160,175,0,19,1,,,-1,-1,-1,-1,-1,-,-,1,-,-,-,-1,35,1,0,39,35,0,0,0,0,0,0,0,0,0,0,0,0,-,-,-,-,-,2
333,0,1,6,33,5,0,0,0,1,1,1,141.6375,842.0025,0,0,0,20,20,20,20,20,0,525,160,110,85,120,0,8,11,12.75,24,55.75,38.665,78.75,22.8,14.85,10.8375,14.4,1,441,108,127,166,158,100,18,1,,,-1,-1,-1,-1,-1,-,-,1,-,-,-,-1,47,1,0,0,48,0,0,0,0,0,0,0,0,0,0,0,0,-,-,-,-,-,1
334,0,1,6,34,2,0,0,0,1,2,2,122.5025,686.35,0,0,0,20,10,10,10,15,35,76,102,103,163,224,0,5.1,10.3,24.45,44.8,84.65,38.7,11.4,14.535,13.905,20.7825,26.88,1,120,113,105,130,174,35,18,1,,,-1,-1,-1,-1,-1,-,-,1,-,-,-,-1,25,1,0,30,24,0,0,0,0,0,0,0,0,0,0,0,0,-,-,-,-,-,0
335,0,1,6,35,2,0,0,0,1,2,2,137.5025,847.35,0,0,0,0,0,0,20,30,50,76,102,103,163,224,0,5.1,10.3,24.45,44.8,84.65,38.7,11.4,14.535,13.905,20.7825,26.88,1,120,113,105,130,174,50,55,1,,,-1,-1,-1,-1,-1,-,-,1,-,-,-,-1,12,1,0,26,11,0,0,0,0,0,0,0,0,0,0,0,0,-,-,-,-,-,1
336,0,1,6,36,4,0,0,0,1,2,2,97.39,929.14,0,0,0,30,0,30,0,30,10,310,58,66,26,170,0,2.9,6.6,3.9,34,47.4,35.24,46.5,8.265,8.91,3.315,20.4,1,470,55,30,25,245,100,25,0,,,-1,-1,-1,-1,-1,-,-,1,-,-,-,-1,23,1,0,0,22,0,0,0,0,0,0,0,0,0,0,0,0,-,-,-,-,-,2
337,0,1,6,37,1,0,0,0,1,1,1,133.0275,801.795,0,0,0,5,5,25,25,40,0,157,154,240,167,282,0,7.7,24,25.05,56.4,113.15,65.47,23.55,21.945,32.4,21.2925,33.84,1,160,150,242,131,317,50,22,1,,,-1,-1,-1,-1,-1,-,-,1,-,-,-,-1,21,1,0,26,20,0,0,0,0,0,0,0,0,0,0,0,0,-,-,-,-,-,1
338,0,1,6,38,4,0,0,0,1,2,2,162.39,874.14,0,0,0,0,5,5,5,10,75,310,58,66,26,170,0,2.9,6.6,3.9,34,47.4,35.24,46.5,8.265,8.91,3.315,20.4,1,470,55,30,25,245,100,22,1,,,-1,-1,-1,-1,-1,-,-,1,-,-,-,-1,29,1,0,0,29,0,0,0,0,0,0,0,0,0,0,0,0,-,-,-,-,-,1
339,0,1,6,39,3,0,0,0,1,1,1,137.805,824.055,0,0,0,40,20,30,0,10,0,405,113,145,125,212,0,5.65,14.5,18.75,42.4,81.3,50.63,60.75,16.1025,19.575,15.9375,25.44,1,360,140,165,160,175,10,29,1,,,-1,-1,-1,-1,-1,-,-,1,-,-,-,-1,12,1,0,19,10,0,0,0,0,0,0,0,0,0,0,0,0,-,-,-,-,-,1
340,0,1,6,40,2,0,0,0,1,2,2,137.5025,636.35,0,0,0,10,10,10,10,10,50,76,102,103,163,224,0,5.1,10.3,24.45,44.8,84.65,38.7,11.4,14.535,13.905,20.7825,26.88,1,120,113,105,130,174,100,26,1,,,-1,-1,-1,-1,-1,-,-,1,-,-,-,-1,29,1,0,0,28,0,0,0,0,0,0,0,0,0,0,0,0,-,-,-,-,-,1
341,0,1,6,41,2,0,0,0,1,2,2,147.5025,916.35,0,0,0,0,0,0,0,40,60,76,102,103,163,224,0,5.1,10.3,24.45,44.8,84.65,38.7,11.4,14.535,13.905,20.7825,26.88,1,120,113,105,130,174,100,21,0,,,-1,-1,-1,-1,-1,-,-,1,-,-,-,-1,48,1,0,0,49,0,0,0,0,0,0,0,0,0,0,0,0,-,-,-,-,-,1
342,0,1,6,42,5,0,0,0,1,1,1,141.6375,842.0025,0,0,0,50,30,10,0,10,0,525,160,110,85,120,0,8,11,12.75,24,55.75,38.665,78.75,22.8,14.85,10.8375,14.4,1,441,108,127,166,158,100,24,1,,,-1,-1,-1,-1,-1,-,-,1,-,-,-,-1,14,1,0,0,12,0,0,0,0,0,0,0,0,0,0,0,0,-,-,-,-,-,1
343,0,1,6,43,1,0,0,0,1,1,1,133.0275,801.795,0,0,0,100,0,0,0,0,0,157,154,240,167,282,0,7.7,24,25.05,56.4,113.15,65.47,23.55,21.945,32.4,21.2925,33.84,1,160,150,242,131,317,100,21,0,,,-1,-1,-1,-1,-1,-,-,1,-,-,-,-1,42,1,0,0,42,0,0,0,0,0,0,0,0,0,0,0,0,-,-,-,-,-,0
344,0,1,6,44,5,0,0,0,1,1,1,141.6375,842.0025,0,0,0,10,30,20,15,25,0,525,160,110,85,120,0,8,11,12.75,24,55.75,38.665,78.75,22.8,14.85,10.8375,14.4,1,441,108,127,166,158,25,19,1,,,-1,-1,-1,-1,-1,-,-,1,-,-,-,-1,2,1,0,7,0,0,0,0,0,0,0,0,0,0,0,0,0,-,-,-,-,-,1
345,0,1,6,45,4,0,0,0,1,2,2,187.39,764.14,0,0,0,0,0,0,0,0,100,310,58,66,26,170,0,2.9,6.6,3.9,34,47.4,35.24,46.5,8.265,8.91,3.315,20.4,1,470,55,30,25,245,100,19,0,,,-1,-1,-1,-1,-1,-,-,1,-,-,-,-1,9,1,0,0,7,0,0,0,0,0,0,0,0,0,0,0,0,-,-,-,-,-,1
346,0,1,6,46,6,0,0,0,1,2,2,106.7975,633.76,0,0,0,10,15,20,25,25,5,219,124,119,167,116,0,6.2,11.9,25.05,23.2,66.35,34.16,32.85,17.67,16.065,21.2925,13.92,1,277,72,104,115,152,5,34,0,,,-1,-1,-1,-1,-1,-,-,1,-,-,-,-1,33,1,0,36,33,0,0,0,0,0,0,0,0,0,0,0,0,-,-,-,-,-,0
347,0,1,6,47,5,0,0,0,1,1,1,141.6375,842.0025,0,0,0,80,0,0,0,20,0,525,160,110,85,120,0,8,11,12.75,24,55.75,38.665,78.75,22.8,14.85,10.8375,14.4,1,441,108,127,166,158,100,18,0,,,-1,-1,-1,-1,-1,-,-,1,-,-,-,-1,10,1,0,0,8,0,0,0,0,0,0,0,0,0,0,0,0,-,-,-,-,-,1
348,0,1,6,48,1,0,0,0,1,1,1,133.0275,801.795,0,0,0,0,5,15,20,60,0,157,154,240,167,282,0,7.7,24,25.05,56.4,113.15,65.47,23.55,21.945,32.4,21.2925,33.84,1,160,150,242,131,317,100,35,0,,,-1,-1,-1,-1,-1,-,-,1,-,-,-,-1,20,1,0,0,18,0,0,0,0,0,0,0,0,0,0,0,0,-,-,-,-,-,1
349,0,1,6,49,1,0,0,0,1,1,1,133.0275,801.795,0,0,0,0,50,50,0,0,0,157,154,240,167,282,0,7.7,24,25.05,56.4,113.15,65.47,23.55,21.945,32.4,21.2925,33.84,1,160,150,242,131,317,100,24,0,,,-1,-1,-1,-1,-1,-,-,1,-,-,-,-1,14,1,0,0,12,0,0,0,0,0,0,0,0,0,0,0,0,-,-,-,-,-,1
350,0,1,6,50,1,0,0,0,1,1,1,133.0275,801.795,0,0,0,0,10,30,10,50,0,157,154,240,167,282,0,7.7,24,25.05,56.4,113.15,65.47,23.55,21.945,32.4,21.2925,33.84,1,160,150,242,131,317,100,21,1,,,-1,-1,-1,-1,-1,-,-,1,-,-,-,-1,18,1,0,0,16,0,0,0,0,0,0,0,0,0,0,0,0,-,-,-,-,-,1
351,0,1,6,51,3,0,0,0,1,1,1,137.805,824.055,0,0,0,30,15,10,15,30,0,405,113,145,125,212,0,5.65,14.5,18.75,42.4,81.3,50.63,60.75,16.1025,19.575,15.9375,25.44,1,360,140,165,160,175,0,22,1,,,-1,-1,-1,-1,-1,-,-,1,-,-,-,-1,29,1,0,40,28,0,0,0,0,0,0,0,0,0,0,0,0,-,-,-,-,-,2
352,0,1,6,52,5,0,0,0,1,1,1,141.6375,842.0025,0,0,0,100,0,0,0,0,0,525,160,110,85,120,0,8,11,12.75,24,55.75,38.665,78.75,22.8,14.85,10.8375,14.4,1,441,108,127,166,158,100,19,0,,,-1,-1,-1,-1,-1,-,-,1,-,-,-,-1,43,1,0,0,43,0,0,0,0,0,0,0,0,0,0,0,0,-,-,-,-,-,1
353,0,1,6,53,5,0,0,0,1,1,1,141.6375,842.0025,0,0,0,15,15,20,25,25,0,525,160,110,85,120,0,8,11,12.75,24,55.75,38.665,78.75,22.8,14.85,10.8375,14.4,1,441,108,127,166,158,100,37,0,,,-1,-1,-1,-1,-1,-,-,1,-,-,-,-1,35,1,0,0,34,0,0,0,0,0,0,0,0,0,0,0,0,-,-,-,-,-,0
354,0,1,6,54,4,0,0,0,1,2,2,137.39,944.14,0,0,0,35,3,1,1,10,50,310,58,66,26,170,0,2.9,6.6,3.9,34,47.4,35.24,46.5,8.265,8.91,3.315,20.4,1,470,55,30,25,245,100,19,1,,,-1,-1,-1,-1,-1,-,-,1,-,-,-,-1,20,1,0,0,18,0,0,0,0,0,0,0,0,0,0,0,0,-,-,-,-,-,1
355,0,1,6,55,1,0,0,0,1,1,1,133.0275,801.795,0,0,0,2,19,25,32,22,0,157,154,240,167,282,0,7.7,24,25.05,56.4,113.15,65.47,23.55,21.945,32.4,21.2925,33.84,1,160,150,242,131,317,22,19,1,,,-1,-1,-1,-1,-1,-,-,1,-,-,-,-1,30,1,0,32,29,0,0,0,0,0,0,0,0,0,0,0,0,-,-,-,-,-,0
356,0,1,6,56,2,0,0,0,1,2,2,91.5025,593.35,0,0,0,10,15,0,15,56,4,76,102,103,163,224,0,5.1,10.3,24.45,44.8,84.65,38.7,11.4,14.535,13.905,20.7825,26.88,1,120,113,105,130,174,100,20,1,,,-1,-1,-1,-1,-1,-,-,1,-,-,-,-1,19,1,0,0,18,0,0,0,0,0,0,0,0,0,0,0,0,-,-,-,-,-,1
357,0,1,6,57,3,0,0,0,1,1,1,137.805,824.055,0,0,0,100,0,0,0,0,0,405,113,145,125,212,0,5.65,14.5,18.75,42.4,81.3,50.63,60.75,16.1025,19.575,15.9375,25.44,1,360,140,165,160,175,100,19,0,,,-1,-1,-1,-1,-1,-,-,1,-,-,-,-1,30,1,0,0,29,0,0,0,0,0,0,0,0,0,0,0,0,-,-,-,-,-,1
358,0,1,6,58,1,0,0,0,1,1,1,133.0275,801.795,0,0,0,0,10,15,25,50,0,157,154,240,167,282,0,7.7,24,25.05,56.4,113.15,65.47,23.55,21.945,32.4,21.2925,33.84,1,160,150,242,131,317,0,18,1,,,-1,-1,-1,-1,-1,-,-,1,-,-,-,-1,30,1,0,32,29,0,0,0,0,0,0,0,0,0,0,0,0,-,-,-,-,-,2
359,0,1,6,59,2,0,0,0,1,2,2,107.5025,706.35,0,0,0,0,20,20,20,20,20,76,102,103,163,224,0,5.1,10.3,24.45,44.8,84.65,38.7,11.4,14.535,13.905,20.7825,26.88,1,120,113,105,130,174,100,36,0,,,-1,-1,-1,-1,-1,-,-,1,-,-,-,-1,47,1,0,0,48,0,0,0,0,0,0,0,0,0,0,0,0,-,-,-,-,-,2
360,0,1,6,60,1,0,0,0,1,1,1,133.0275,801.795,0,0,0,15,15,25,15,30,0,157,154,240,167,282,0,7.7,24,25.05,56.4,113.15,65.47,23.55,21.945,32.4,21.2925,33.84,1,160,150,242,131,317,0,20,0,,,-1,-1,-1,-1,-1,-,-,1,-,-,-,-1,47,1,0,49,47,0,0,0,0,0,0,0,0,0,0,0,0,-,-,-,-,-,2
361,0,1,7,1,4,0,0,0,1,2,2,103.8375,767.9775,0,0,0,30,20,30,10,10,0,370,64,80,77,155,0,3.2,8,11.55,31,53.75,40.615,55.5,9.12,10.8,9.8175,18.6,1,310,58,66,26,170,0,26,1,,,-1,-1,-1,-1,-1,-,-,1,-,-,-,-1,9,1,0,38,7,0,0,0,0,0,0,0,0,0,0,0,0,-,-,-,-,-,2
362,0,1,7,2,5,0,0,0,1,1,1,143.67,985.6725,0,0,0,70,10,10,0,10,0,617,150,86,66,81,0,7.5,8.6,9.9,16.2,42.2,42.885,92.55,21.375,11.61,8.415,9.72,1,525,160,110,85,120,100,21,1,,,-1,-1,-1,-1,-1,-,-,1,-,-,-,-1,41,1,0,0,43,0,0,0,0,0,0,0,0,0,0,0,0,-,-,-,-,-,1
363,0,1,7,3,1,0,0,0,1,1,1,132.9375,934.7325,0,0,0,20,20,20,20,20,0,123,220,211,151,295,0,11,21.1,22.65,59,113.75,76.845,18.45,31.35,28.485,19.2525,35.4,1,157,154,240,167,282,100,49,1,,,-1,-1,-1,-1,-1,-,-,1,-,-,-,-1,31,1,0,0,31,0,0,0,0,0,0,0,0,0,0,0,0,-,-,-,-,-,0
364,0,1,7,4,2,0,0,0,1,2,2,125.435,930.785,0,0,0,0,5,10,15,20,50,43,94,117,122,202,0,4.7,11.7,18.3,40.4,75.1,46.21,6.45,13.395,15.795,15.555,24.24,1,76,102,103,163,224,100,58,0,,,-1,-1,-1,-1,-1,-,-,1,-,-,-,-1,26,1,0,55,25,0,0,0,0,0,0,0,0,0,0,0,0,-,-,-,-,-,1
365,0,1,7,5,3,0,0,0,1,1,1,137.34,961.395,0,0,0,80,5,5,5,5,0,304,148,273,106,169,0,7.4,27.3,15.9,33.8,84.4,59.07,45.6,21.09,36.855,13.515,20.28,1,405,113,145,125,212,0,18,0,,,-1,-1,-1,-1,-1,-,-,1,-,-,-,-1,46,1,0,52,47,0,0,0,0,0,0,0,0,0,0,0,0,-,-,-,-,-,1
366,0,1,7,6,3,0,0,0,1,1,1,137.34,961.395,0,0,0,45,20,10,0,25,0,304,148,273,106,169,0,7.4,27.3,15.9,33.8,84.4,59.07,45.6,21.09,36.855,13.515,20.28,1,405,113,145,125,212,0,18,1,,,-1,-1,-1,-1,-1,-,-,1,-,-,-,-1,35,1,0,37,35,0,0,0,0,0,0,0,0,0,0,0,0,-,-,-,-,-,2
367,0,1,7,7,6,0,0,0,1,2,2,176.045,945.805,0,0,0,1,1,1,1,1,95,196,98,97,94,105,0,4.9,9.7,14.1,21,49.7,39.13,29.4,13.965,13.095,11.985,12.6,1,219,124,119,167,116,100,21,1,,,-1,-1,-1,-1,-1,-,-,1,-,-,-,-1,55,1,0,0,56,0,0,0,0,0,0,0,0,0,0,0,0,-,-,-,-,-,2
368,0,1,7,8,6,0,0,0,1,2,2,166.045,1232.805,0,0,0,5,2,1,3,4,85,196,98,97,94,105,0,4.9,9.7,14.1,21,49.7,39.13,29.4,13.965,13.095,11.985,12.6,1,219,124,119,167,116,100,23,0,,,-1,-1,-1,-1,-1,-,-,1,-,-,-,-1,45,1,0,0,45,0,0,0,0,0,0,0,0,0,0,0,0,-,-,-,-,-,2
369,0,1,7,9,5,0,0,0,1,1,1,143.67,985.6725,0,0,0,50,10,10,20,10,0,617,150,86,66,81,0,7.5,8.6,9.9,16.2,42.2,42.885,92.55,21.375,11.61,8.415,9.72,1,525,160,110,85,120,0,24,0,,,-1,-1,-1,-1,-1,-,-,1,-,-,-,-1,36,1,0,37,36,0,0,0,0,0,0,0,0,0,0,0,0,-,-,-,-,-,0
370,0,1,7,10,6,0,0,0,1,2,2,111.045,740.805,0,0,0,40,20,10,0,0,30,196,98,97,94,105,0,4.9,9.7,14.1,21,49.7,39.13,29.4,13.965,13.095,11.985,12.6,1,219,124,119,167,116,100,24,1,,,-1,-1,-1,-1,-1,-,-,1,-,-,-,-1,9,1,0,0,7,0,0,0,0,0,0,0,0,0,0,0,0,-,-,-,-,-,2
371,0,1,7,11,4,0,0,0,1,2,2,153.8375,987.9775,0,0,0,0,10,10,30,0,50,370,64,80,77,155,0,3.2,8,11.55,31,53.75,40.615,55.5,9.12,10.8,9.8175,18.6,1,310,58,66,26,170,100,18,1,,,-1,-1,-1,-1,-1,-,-,1,-,-,-,-1,47,1,0,0,48,0,0,0,0,0,0,0,0,0,0,0,0,-,-,-,-,-,2
372,0,1,7,12,6,0,0,0,1,2,2,121.045,894.805,0,0,0,0,0,20,20,20,40,196,98,97,94,105,0,4.9,9.7,14.1,21,49.7,39.13,29.4,13.965,13.095,11.985,12.6,1,219,124,119,167,116,100,39,1,,,-1,-1,-1,-1,-1,-,-,1,-,-,-,-1,37,1,0,0,37,0,0,0,0,0,0,0,0,0,0,0,0,-,-,-,-,-,2
373,0,1,7,13,4,0,0,0,1,2,2,103.8375,817.9775,0,0,0,20,10,10,10,50,0,370,64,80,77,155,0,3.2,8,11.55,31,53.75,40.615,55.5,9.12,10.8,9.8175,18.6,1,310,58,66,26,170,10,29,0,,,-1,-1,-1,-1,-1,-,-,1,-,-,-,-1,34,1,0,40,34,0,0,0,0,0,0,0,0,0,0,0,0,-,-,-,-,-,0
374,0,1,7,14,3,0,0,0,1,1,1,137.34,961.395,0,0,0,5,25,20,25,25,0,304,148,273,106,169,0,7.4,27.3,15.9,33.8,84.4,59.07,45.6,21.09,36.855,13.515,20.28,1,405,113,145,125,212,25,46,1,,,-1,-1,-1,-1,-1,-,-,1,-,-,-,-1,32,1,0,42,32,0,0,0,0,0,0,0,0,0,0,0,0,-,-,-,-,-,2
375,0,1,7,15,4,0,0,0,1,2,2,103.8375,777.9775,0,0,0,50,0,0,0,50,0,370,64,80,77,155,0,3.2,8,11.55,31,53.75,40.615,55.5,9.12,10.8,9.8175,18.6,1,310,58,66,26,170,100,27,1,,,-1,-1,-1,-1,-1,-,-,1,-,-,-,-1,39,1,0,0,39,0,0,0,0,0,0,0,0,0,0,0,0,-,-,-,-,-,1
376,0,1,7,16,5,0,0,0,1,1,1,143.67,985.6725,0,0,0,95,2,1,1,1,0,617,150,86,66,81,0,7.5,8.6,9.9,16.2,42.2,42.885,92.55,21.375,11.61,8.415,9.72,1,525,160,110,85,120,100,23,0,,,-1,-1,-1,-1,-1,-,-,1,-,-,-,-1,31,1,0,0,31,0,0,0,0,0,0,0,0,0,0,0,0,-,-,-,-,-,1
377,0,1,7,17,6,0,0,0,1,2,2,81.045,629.805,0,0,0,50,20,10,10,10,0,196,98,97,94,105,0,4.9,9.7,14.1,21,49.7,39.13,29.4,13.965,13.095,11.985,12.6,1,219,124,119,167,116,100,18,1,,,-1,-1,-1,-1,-1,-,-,1,-,-,-,-1,38,1,0,0,39,0,0,0,0,0,0,0,0,0,0,0,0,-,-,-,-,-,0
378,0,1,7,18,2,0,0,0,1,2,2,157.435,1101.785,0,0,0,8,4,3,2,1,82,43,94,117,122,202,0,4.7,11.7,18.3,40.4,75.1,46.21,6.45,13.395,15.795,15.555,24.24,1,76,102,103,163,224,85,21,1,,,-1,-1,-1,-1,-1,-,-,1,-,-,-,-1,1,1,0,6,0,0,0,0,0,0,0,0,0,0,0,0,0,-,-,-,-,-,0
379,0,1,7,19,3,0,0,0,1,1,1,137.34,961.395,0,0,0,4,47,22,18,9,0,304,148,273,106,169,0,7.4,27.3,15.9,33.8,84.4,59.07,45.6,21.09,36.855,13.515,20.28,1,405,113,145,125,212,0,21,1,,,-1,-1,-1,-1,-1,-,-,1,-,-,-,-1,19,1,0,20,17,0,0,0,0,0,0,0,0,0,0,0,0,-,-,-,-,-,0
380,0,1,7,20,5,0,0,0,1,1,1,143.67,985.6725,0,0,0,80,5,5,5,5,0,617,150,86,66,81,0,7.5,8.6,9.9,16.2,42.2,42.885,92.55,21.375,11.61,8.415,9.72,1,525,160,110,85,120,0,24,1,,,-1,-1,-1,-1,-1,-,-,1,-,-,-,-1,2,1,0,2,1,0,0,0,0,0,0,0,0,0,0,0,0,-,-,-,-,-,1
381,0,1,7,21,6,0,0,0,1,2,2,86.045,814.805,0,0,0,20,15,15,20,25,5,196,98,97,94,105,0,4.9,9.7,14.1,21,49.7,39.13,29.4,13.965,13.095,11.985,12.6,1,219,124,119,167,116,30,22,1,,,-1,-1,-1,-1,-1,-,-,1,-,-,-,-1,37,1,0,42,37,0,0,0,0,0,0,0,0,0,0,0,0,-,-,-,-,-,0
382,0,1,7,22,3,0,0,0,1,1,1,137.34,961.395,0,0,0,0,1,88,6,5,0,304,148,273,106,169,0,7.4,27.3,15.9,33.8,84.4,59.07,45.6,21.09,36.855,13.515,20.28,0,405,113,145,125,212,0,24,1,,,-1,-1,-1,-1,-1,-,-,1,-,-,-,-1,0,1,0,20,0,6,0,5,3,5,1,2,4,0,6,2,6,-,-,-,-,-,0
383,0,1,7,23,2,0,0,0,1,2,2,115.435,690.785,0,0,0,5,20,14,0,21,40,43,94,117,122,202,0,4.7,11.7,18.3,40.4,75.1,46.21,6.45,13.395,15.795,15.555,24.24,1,76,102,103,163,224,44,18,0,,,-1,-1,-1,-1,-1,-,-,1,-,-,-,-1,9,1,0,35,8,0,0,0,0,0,0,0,0,0,0,0,0,-,-,-,-,-,1
384,0,1,7,24,4,0,0,0,1,2,2,103.8375,832.9775,0,0,0,90,0,0,0,10,0,370,64,80,77,155,0,3.2,8,11.55,31,53.75,40.615,55.5,9.12,10.8,9.8175,18.6,1,310,58,66,26,170,100,19,0,,,-1,-1,-1,-1,-1,-,-,1,-,-,-,-1,35,1,0,0,34,0,0,0,0,0,0,0,0,0,0,0,0,-,-,-,-,-,2
385,0,1,7,25,2,0,0,0,1,2,2,95.435,751.785,0,0,0,0,20,30,20,10,20,43,94,117,122,202,0,4.7,11.7,18.3,40.4,75.1,46.21,6.45,13.395,15.795,15.555,24.24,1,76,102,103,163,224,100,41,1,,,-1,-1,-1,-1,-1,-,-,1,-,-,-,-1,36,1,0,0,35,0,0,0,0,0,0,0,0,0,0,0,0,-,-,-,-,-,1
386,0,1,7,26,6,0,0,0,1,2,2,81.045,629.805,0,0,0,50,20,15,10,5,0,196,98,97,94,105,0,4.9,9.7,14.1,21,49.7,39.13,29.4,13.965,13.095,11.985,12.6,1,219,124,119,167,116,0,19,0,,,-1,-1,-1,-1,-1,-,-,1,-,-,-,-1,39,1,0,40,39,0,0,0,0,0,0,0,0,0,0,0,0,-,-,-,-,-,2
387,0,1,7,27,6,0,0,0,1,2,2,181.045,1089.805,0,0,0,0,0,0,0,0,100,196,98,97,94,105,0,4.9,9.7,14.1,21,49.7,39.13,29.4,13.965,13.095,11.985,12.6,1,219,124,119,167,116,100,19,0,,,-1,-1,-1,-1,-1,-,-,1,-,-,-,-1,53,1,0,0,55,0,0,0,0,0,0,0,0,0,0,0,0,-,-,-,-,-,0
